run_id,condition,rt,stimulus,key_press,trial_type,trial_index,time_elapsed,internal_node_id,left_shape,right_shape,bias_shape,phase,block,trial,rewarded,image,unrewarded_left_trials,unrewarded_right_trials,task,correct_shape,response,correct,did_reward,value,recorded_at,ip,user_agent,device,browser,browser_version,platform,platform_version
4,1,1886.6450000205077,"<p>Welcome! Please position your index fingers on the ""A"" and ""L"" keys for this experiment.
        The game will last approximately 10 minutes and is composed of 3 blocks 
        separated by a break.</p><p>Press the spacebar to continue.</p>",32,html-keyboard-response,0,1889,0.0-0.0-0.0,circles,squares,squares,"""","""","""","""","""","""","""","""","""","""","""","""","""","2020-12-15 18:38:47",96.248.40.73,"Mozilla/5.0 (Windows NT 10.0; Win64; x64) AppleWebKit/537.36 (KHTML, like Gecko) Chrome/87.0.4280.88 Safari/537.36",WebKit,Chrome,87.0.4280.88,Windows,10.0
4,1,1199.6949999593198,"<p>In this experiment you will be presented with either an image with more squares than circles, or an image with 
        more circles than squares. You will see them one at a time.</p>
        <p>Your task will be to decide whether more squares or more circles were presented by pushing the correct button as quickly
        and accurately as possible.</p>
        <p>The ""A"" key will be used to identify more circles and the ""L"" key will be used 
        to identify more squares. Examples of what the images look like are below:</p>
        <p style=""height: 300px;"">
        <img style=""width:250px; float: left;"" src=""img/7S_10C_yellow1.jpg""></img>
        <img style=""width:250px; float: right;"" src=""img/7C_10S_yellow3.jpg""></img>
        <span style=""text-align:center; width:250px; clear:both; float: left;"">More circles = A</span>
        <span style=""text-align:center; width:250px; float: right;"">More squares = L</span>
        </p>
        <p>Press the spacebar to continue.</p>",32,html-keyboard-response,1,3092,0.0-0.0-1.0,circles,squares,squares,"""","""","""","""","""","""","""","""","""","""","""","""","""","2020-12-15 18:38:47",96.248.40.73,"Mozilla/5.0 (Windows NT 10.0; Win64; x64) AppleWebKit/537.36 (KHTML, like Gecko) Chrome/87.0.4280.88 Safari/537.36",WebKit,Chrome,87.0.4280.88,Windows,10.0
4,1,2452.099999994971,"<p style=""font-size: 18px;"">More circles</p>
        <img src=""img/yellow_circle.jpeg"" style=""width:100px;""></img>
        <p>The [A] key will be used to identify pictures with <span style=""text-decoration: underline;"">more circles.</span></p>
        <img style=""width:250px;"" src=""img/7S_10C_yellow1.jpg""></img>
        <p>Press the [A] key to continue.</p>",65,html-keyboard-response,2,5546,0.0-0.0-2.0,circles,squares,squares,"""","""","""","""","""","""","""","""","""","""","""","""","""","2020-12-15 18:38:47",96.248.40.73,"Mozilla/5.0 (Windows NT 10.0; Win64; x64) AppleWebKit/537.36 (KHTML, like Gecko) Chrome/87.0.4280.88 Safari/537.36",WebKit,Chrome,87.0.4280.88,Windows,10.0
4,1,3474.3699999526143,"<p style=""font-size: 18px;"">More squares</p>
        <img src=""img/yellow_square.jpeg"" style=""width:100px;""></img>
        <p>The [L] key will be used to identify pictures with <span style=""text-decoration: underline;"">more squares.</span></p>
        <img style=""width:250px;"" src=""img/7C_10S_yellow3.jpg""></img>
        <p>Press the [L] key to continue.</p>",76,html-keyboard-response,3,9022,0.0-0.0-3.0,circles,squares,squares,"""","""","""","""","""","""","""","""","""","""","""","""","""","2020-12-15 18:38:47",96.248.40.73,"Mozilla/5.0 (Windows NT 10.0; Win64; x64) AppleWebKit/537.36 (KHTML, like Gecko) Chrome/87.0.4280.88 Safari/537.36",WebKit,Chrome,87.0.4280.88,Windows,10.0
4,1,1187.1299999766052,"<p>Now, let's take a practice run. You will see a fixation cross, '+', on the screen. You should always focus your
        attention on the fixation cross as this will help you identify the image as quickly and accurately as possible. The fixation
        cross will be followed by an image with more squares or more circles. Remember, if you think there are more circles
        press the ""A"" key. If you think there are more squares press the ""L"" key.</p>
        <p>If you understand these directions and are ready to proceed to the practice round, please press the spacebar.</p>",32,html-keyboard-response,4,10210,0.0-0.0-4.0,circles,squares,squares,"""","""","""","""","""","""","""","""","""","""","""","""","""","2020-12-15 18:38:47",96.248.40.73,"Mozilla/5.0 (Windows NT 10.0; Win64; x64) AppleWebKit/537.36 (KHTML, like Gecko) Chrome/87.0.4280.88 Safari/537.36",WebKit,Chrome,87.0.4280.88,Windows,10.0
4,1,null,"<p class=""fixation"">+</p>",null,html-keyboard-response,5,10713,0.0-1.0-0.0-0.0,circles,squares,squares,practice,"""","""","""","""","""","""","""","""","""","""","""","""","2020-12-15 18:38:47",96.248.40.73,"Mozilla/5.0 (Windows NT 10.0; Win64; x64) AppleWebKit/537.36 (KHTML, like Gecko) Chrome/87.0.4280.88 Safari/537.36",WebKit,Chrome,87.0.4280.88,Windows,10.0
4,1,892.6450000144541,"<img src=""img/7C_10S_yellow3.jpg"" style=""width:500px;""></img>",76,html-keyboard-response,6,11607,0.0-1.0-0.0-1.0,circles,squares,squares,practice,null,null,null,img/7C_10S_yellow3.jpg,0,0,respond,squares,squares,true,false,"""","2020-12-15 18:38:47",96.248.40.73,"Mozilla/5.0 (Windows NT 10.0; Win64; x64) AppleWebKit/537.36 (KHTML, like Gecko) Chrome/87.0.4280.88 Safari/537.36",WebKit,Chrome,87.0.4280.88,Windows,10.0
4,1,null,mp3/reward-coin-drop.mp3,null,audio-keyboard-response,7,13117,0.0-1.0-0.0-2.0,circles,squares,squares,practice,"""","""","""","""","""","""",accuracy-feedback,"""","""","""","""","""","2020-12-15 18:38:47",96.248.40.73,"Mozilla/5.0 (Windows NT 10.0; Win64; x64) AppleWebKit/537.36 (KHTML, like Gecko) Chrome/87.0.4280.88 Safari/537.36",WebKit,Chrome,87.0.4280.88,Windows,10.0
4,1,null,"""",null,html-keyboard-response,8,14629,0.0-1.0-0.0-3.0-0.0,circles,squares,squares,practice,"""","""","""","""","""","""","""","""","""","""","""","""","2020-12-15 18:38:47",96.248.40.73,"Mozilla/5.0 (Windows NT 10.0; Win64; x64) AppleWebKit/537.36 (KHTML, like Gecko) Chrome/87.0.4280.88 Safari/537.36",WebKit,Chrome,87.0.4280.88,Windows,10.0
4,1,null,"<p class=""fixation"">+</p>",null,html-keyboard-response,9,15132,0.0-1.0-0.0-0.1,circles,squares,squares,practice,"""","""","""","""","""","""","""","""","""","""","""","""","2020-12-15 18:38:47",96.248.40.73,"Mozilla/5.0 (Windows NT 10.0; Win64; x64) AppleWebKit/537.36 (KHTML, like Gecko) Chrome/87.0.4280.88 Safari/537.36",WebKit,Chrome,87.0.4280.88,Windows,10.0
4,1,631.7500000004657,"<img src=""img/7C_10S_yellow4.jpg"" style=""width:500px;""></img>",76,html-keyboard-response,10,15765,0.0-1.0-0.0-1.1,circles,squares,squares,practice,null,null,null,img/7C_10S_yellow4.jpg,0,0,respond,squares,squares,true,false,"""","2020-12-15 18:38:47",96.248.40.73,"Mozilla/5.0 (Windows NT 10.0; Win64; x64) AppleWebKit/537.36 (KHTML, like Gecko) Chrome/87.0.4280.88 Safari/537.36",WebKit,Chrome,87.0.4280.88,Windows,10.0
4,1,null,mp3/reward-coin-drop.mp3,null,audio-keyboard-response,11,17272,0.0-1.0-0.0-2.1,circles,squares,squares,practice,"""","""","""","""","""","""",accuracy-feedback,"""","""","""","""","""","2020-12-15 18:38:47",96.248.40.73,"Mozilla/5.0 (Windows NT 10.0; Win64; x64) AppleWebKit/537.36 (KHTML, like Gecko) Chrome/87.0.4280.88 Safari/537.36",WebKit,Chrome,87.0.4280.88,Windows,10.0
4,1,null,"""",null,html-keyboard-response,12,18777,0.0-1.0-0.0-3.1-0.1,circles,squares,squares,practice,"""","""","""","""","""","""","""","""","""","""","""","""","2020-12-15 18:38:47",96.248.40.73,"Mozilla/5.0 (Windows NT 10.0; Win64; x64) AppleWebKit/537.36 (KHTML, like Gecko) Chrome/87.0.4280.88 Safari/537.36",WebKit,Chrome,87.0.4280.88,Windows,10.0
4,1,null,"<p class=""fixation"">+</p>",null,html-keyboard-response,13,19285,0.0-1.0-0.0-0.2,circles,squares,squares,practice,"""","""","""","""","""","""","""","""","""","""","""","""","2020-12-15 18:38:47",96.248.40.73,"Mozilla/5.0 (Windows NT 10.0; Win64; x64) AppleWebKit/537.36 (KHTML, like Gecko) Chrome/87.0.4280.88 Safari/537.36",WebKit,Chrome,87.0.4280.88,Windows,10.0
4,1,567.1750000328757,"<img src=""img/7S_10C_yellow1.jpg"" style=""width:500px;""></img>",76,html-keyboard-response,14,19854,0.0-1.0-0.0-1.2,circles,squares,squares,practice,null,null,null,img/7S_10C_yellow1.jpg,0,0,respond,circles,squares,false,false,"""","2020-12-15 18:38:47",96.248.40.73,"Mozilla/5.0 (Windows NT 10.0; Win64; x64) AppleWebKit/537.36 (KHTML, like Gecko) Chrome/87.0.4280.88 Safari/537.36",WebKit,Chrome,87.0.4280.88,Windows,10.0
4,1,null,null,null,audio-keyboard-response,15,21363,0.0-1.0-0.0-2.2,circles,squares,squares,practice,"""","""","""","""","""","""",accuracy-feedback,"""","""","""","""","""","2020-12-15 18:38:47",96.248.40.73,"Mozilla/5.0 (Windows NT 10.0; Win64; x64) AppleWebKit/537.36 (KHTML, like Gecko) Chrome/87.0.4280.88 Safari/537.36",WebKit,Chrome,87.0.4280.88,Windows,10.0
4,1,null,"""",null,html-keyboard-response,16,22866,0.0-1.0-0.0-3.2-0.2,circles,squares,squares,practice,"""","""","""","""","""","""","""","""","""","""","""","""","2020-12-15 18:38:47",96.248.40.73,"Mozilla/5.0 (Windows NT 10.0; Win64; x64) AppleWebKit/537.36 (KHTML, like Gecko) Chrome/87.0.4280.88 Safari/537.36",WebKit,Chrome,87.0.4280.88,Windows,10.0
4,1,null,"<p class=""fixation"">+</p>",null,html-keyboard-response,17,23368,0.0-1.0-0.0-0.3,circles,squares,squares,practice,"""","""","""","""","""","""","""","""","""","""","""","""","2020-12-15 18:38:47",96.248.40.73,"Mozilla/5.0 (Windows NT 10.0; Win64; x64) AppleWebKit/537.36 (KHTML, like Gecko) Chrome/87.0.4280.88 Safari/537.36",WebKit,Chrome,87.0.4280.88,Windows,10.0
4,1,811.054999998305,"<img src=""img/7C_10S_yellow5.jpg"" style=""width:500px;""></img>",65,html-keyboard-response,18,24181,0.0-1.0-0.0-1.3,circles,squares,squares,practice,null,null,null,img/7C_10S_yellow5.jpg,0,0,respond,squares,circles,false,false,"""","2020-12-15 18:38:47",96.248.40.73,"Mozilla/5.0 (Windows NT 10.0; Win64; x64) AppleWebKit/537.36 (KHTML, like Gecko) Chrome/87.0.4280.88 Safari/537.36",WebKit,Chrome,87.0.4280.88,Windows,10.0
4,1,null,null,null,audio-keyboard-response,19,25696,0.0-1.0-0.0-2.3,circles,squares,squares,practice,"""","""","""","""","""","""",accuracy-feedback,"""","""","""","""","""","2020-12-15 18:38:47",96.248.40.73,"Mozilla/5.0 (Windows NT 10.0; Win64; x64) AppleWebKit/537.36 (KHTML, like Gecko) Chrome/87.0.4280.88 Safari/537.36",WebKit,Chrome,87.0.4280.88,Windows,10.0
4,1,null,"""",null,html-keyboard-response,20,27200,0.0-1.0-0.0-3.3-0.3,circles,squares,squares,practice,"""","""","""","""","""","""","""","""","""","""","""","""","2020-12-15 18:38:47",96.248.40.73,"Mozilla/5.0 (Windows NT 10.0; Win64; x64) AppleWebKit/537.36 (KHTML, like Gecko) Chrome/87.0.4280.88 Safari/537.36",WebKit,Chrome,87.0.4280.88,Windows,10.0
4,1,null,"<p class=""fixation"">+</p>",null,html-keyboard-response,21,27708,0.0-1.0-0.0-0.4,circles,squares,squares,practice,"""","""","""","""","""","""","""","""","""","""","""","""","2020-12-15 18:38:47",96.248.40.73,"Mozilla/5.0 (Windows NT 10.0; Win64; x64) AppleWebKit/537.36 (KHTML, like Gecko) Chrome/87.0.4280.88 Safari/537.36",WebKit,Chrome,87.0.4280.88,Windows,10.0
4,1,905.2849999861792,"<img src=""img/7S_10C_yellow4.jpg"" style=""width:500px;""></img>",65,html-keyboard-response,22,28615,0.0-1.0-0.0-1.4,circles,squares,squares,practice,null,null,null,img/7S_10C_yellow4.jpg,0,0,respond,circles,circles,true,false,"""","2020-12-15 18:38:47",96.248.40.73,"Mozilla/5.0 (Windows NT 10.0; Win64; x64) AppleWebKit/537.36 (KHTML, like Gecko) Chrome/87.0.4280.88 Safari/537.36",WebKit,Chrome,87.0.4280.88,Windows,10.0
4,1,null,mp3/reward-coin-drop.mp3,null,audio-keyboard-response,23,30122,0.0-1.0-0.0-2.4,circles,squares,squares,practice,"""","""","""","""","""","""",accuracy-feedback,"""","""","""","""","""","2020-12-15 18:38:47",96.248.40.73,"Mozilla/5.0 (Windows NT 10.0; Win64; x64) AppleWebKit/537.36 (KHTML, like Gecko) Chrome/87.0.4280.88 Safari/537.36",WebKit,Chrome,87.0.4280.88,Windows,10.0
4,1,null,"""",null,html-keyboard-response,24,31639,0.0-1.0-0.0-3.4-0.4,circles,squares,squares,practice,"""","""","""","""","""","""","""","""","""","""","""","""","2020-12-15 18:38:47",96.248.40.73,"Mozilla/5.0 (Windows NT 10.0; Win64; x64) AppleWebKit/537.36 (KHTML, like Gecko) Chrome/87.0.4280.88 Safari/537.36",WebKit,Chrome,87.0.4280.88,Windows,10.0
4,1,null,"<p class=""fixation"">+</p>",null,html-keyboard-response,25,32146,0.0-1.0-0.0-0.5,circles,squares,squares,practice,"""","""","""","""","""","""","""","""","""","""","""","""","2020-12-15 18:38:47",96.248.40.73,"Mozilla/5.0 (Windows NT 10.0; Win64; x64) AppleWebKit/537.36 (KHTML, like Gecko) Chrome/87.0.4280.88 Safari/537.36",WebKit,Chrome,87.0.4280.88,Windows,10.0
4,1,726.3449999736622,"<img src=""img/7S_10C_yellow2.jpg"" style=""width:500px;""></img>",76,html-keyboard-response,26,32874,0.0-1.0-0.0-1.5,circles,squares,squares,practice,null,null,null,img/7S_10C_yellow2.jpg,0,0,respond,circles,squares,false,false,"""","2020-12-15 18:38:47",96.248.40.73,"Mozilla/5.0 (Windows NT 10.0; Win64; x64) AppleWebKit/537.36 (KHTML, like Gecko) Chrome/87.0.4280.88 Safari/537.36",WebKit,Chrome,87.0.4280.88,Windows,10.0
4,1,null,null,null,audio-keyboard-response,27,34378,0.0-1.0-0.0-2.5,circles,squares,squares,practice,"""","""","""","""","""","""",accuracy-feedback,"""","""","""","""","""","2020-12-15 18:38:47",96.248.40.73,"Mozilla/5.0 (Windows NT 10.0; Win64; x64) AppleWebKit/537.36 (KHTML, like Gecko) Chrome/87.0.4280.88 Safari/537.36",WebKit,Chrome,87.0.4280.88,Windows,10.0
4,1,null,"""",null,html-keyboard-response,28,35881,0.0-1.0-0.0-3.5-0.5,circles,squares,squares,practice,"""","""","""","""","""","""","""","""","""","""","""","""","2020-12-15 18:38:47",96.248.40.73,"Mozilla/5.0 (Windows NT 10.0; Win64; x64) AppleWebKit/537.36 (KHTML, like Gecko) Chrome/87.0.4280.88 Safari/537.36",WebKit,Chrome,87.0.4280.88,Windows,10.0
4,1,null,"<p class=""fixation"">+</p>",null,html-keyboard-response,29,36390,0.0-1.0-0.0-0.6,circles,squares,squares,practice,"""","""","""","""","""","""","""","""","""","""","""","""","2020-12-15 18:38:47",96.248.40.73,"Mozilla/5.0 (Windows NT 10.0; Win64; x64) AppleWebKit/537.36 (KHTML, like Gecko) Chrome/87.0.4280.88 Safari/537.36",WebKit,Chrome,87.0.4280.88,Windows,10.0
4,1,812.4350000289269,"<img src=""img/7C_10S_yellow6.jpg"" style=""width:500px;""></img>",76,html-keyboard-response,30,37204,0.0-1.0-0.0-1.6,circles,squares,squares,practice,null,null,null,img/7C_10S_yellow6.jpg,0,0,respond,squares,squares,true,false,"""","2020-12-15 18:38:47",96.248.40.73,"Mozilla/5.0 (Windows NT 10.0; Win64; x64) AppleWebKit/537.36 (KHTML, like Gecko) Chrome/87.0.4280.88 Safari/537.36",WebKit,Chrome,87.0.4280.88,Windows,10.0
4,1,null,mp3/reward-coin-drop.mp3,null,audio-keyboard-response,31,38713,0.0-1.0-0.0-2.6,circles,squares,squares,practice,"""","""","""","""","""","""",accuracy-feedback,"""","""","""","""","""","2020-12-15 18:38:47",96.248.40.73,"Mozilla/5.0 (Windows NT 10.0; Win64; x64) AppleWebKit/537.36 (KHTML, like Gecko) Chrome/87.0.4280.88 Safari/537.36",WebKit,Chrome,87.0.4280.88,Windows,10.0
4,1,null,"""",null,html-keyboard-response,32,40227,0.0-1.0-0.0-3.6-0.6,circles,squares,squares,practice,"""","""","""","""","""","""","""","""","""","""","""","""","2020-12-15 18:38:47",96.248.40.73,"Mozilla/5.0 (Windows NT 10.0; Win64; x64) AppleWebKit/537.36 (KHTML, like Gecko) Chrome/87.0.4280.88 Safari/537.36",WebKit,Chrome,87.0.4280.88,Windows,10.0
4,1,null,"<p class=""fixation"">+</p>",null,html-keyboard-response,33,40732,0.0-1.0-0.0-0.7,circles,squares,squares,practice,"""","""","""","""","""","""","""","""","""","""","""","""","2020-12-15 18:38:47",96.248.40.73,"Mozilla/5.0 (Windows NT 10.0; Win64; x64) AppleWebKit/537.36 (KHTML, like Gecko) Chrome/87.0.4280.88 Safari/537.36",WebKit,Chrome,87.0.4280.88,Windows,10.0
4,1,800.2349999733269,"<img src=""img/7S_10C_yellow3.jpg"" style=""width:500px;""></img>",65,html-keyboard-response,34,41533,0.0-1.0-0.0-1.7,circles,squares,squares,practice,null,null,null,img/7S_10C_yellow3.jpg,0,0,respond,circles,circles,true,false,"""","2020-12-15 18:38:47",96.248.40.73,"Mozilla/5.0 (Windows NT 10.0; Win64; x64) AppleWebKit/537.36 (KHTML, like Gecko) Chrome/87.0.4280.88 Safari/537.36",WebKit,Chrome,87.0.4280.88,Windows,10.0
4,1,null,mp3/reward-coin-drop.mp3,null,audio-keyboard-response,35,43047,0.0-1.0-0.0-2.7,circles,squares,squares,practice,"""","""","""","""","""","""",accuracy-feedback,"""","""","""","""","""","2020-12-15 18:38:47",96.248.40.73,"Mozilla/5.0 (Windows NT 10.0; Win64; x64) AppleWebKit/537.36 (KHTML, like Gecko) Chrome/87.0.4280.88 Safari/537.36",WebKit,Chrome,87.0.4280.88,Windows,10.0
4,1,null,"""",null,html-keyboard-response,36,44551,0.0-1.0-0.0-3.7-0.7,circles,squares,squares,practice,"""","""","""","""","""","""","""","""","""","""","""","""","2020-12-15 18:38:47",96.248.40.73,"Mozilla/5.0 (Windows NT 10.0; Win64; x64) AppleWebKit/537.36 (KHTML, like Gecko) Chrome/87.0.4280.88 Safari/537.36",WebKit,Chrome,87.0.4280.88,Windows,10.0
4,1,1414.5799999823794,"<p>Would you like to practice more? y = yes, n = no</p>",78,html-keyboard-response,37,45967,0.0-1.0-1.0,circles,squares,squares,"""","""","""","""","""","""","""","""","""","""","""","""","""","2020-12-15 18:38:47",96.248.40.73,"Mozilla/5.0 (Windows NT 10.0; Win64; x64) AppleWebKit/537.36 (KHTML, like Gecko) Chrome/87.0.4280.88 Safari/537.36",WebKit,Chrome,87.0.4280.88,Windows,10.0
4,1,2141.590000013821,"<p>For some trials, a correct identification will result in a monetary reward of 20 cents.</p>
          <p>Press the spacebar to see what this will look like.</p>",32,html-keyboard-response,38,48110,0.0-2.0-0.0,circles,squares,squares,"""","""","""","""","""","""","""","""","""","""","""","""","""","2020-12-15 18:38:47",96.248.40.73,"Mozilla/5.0 (Windows NT 10.0; Win64; x64) AppleWebKit/537.36 (KHTML, like Gecko) Chrome/87.0.4280.88 Safari/537.36",WebKit,Chrome,87.0.4280.88,Windows,10.0
4,1,null,mp3/reward-coin-drop.mp3,null,audio-keyboard-response,39,49613,0.0-2.0-1.0,circles,squares,squares,"""","""","""","""","""","""","""","""","""","""","""","""","""","2020-12-15 18:38:47",96.248.40.73,"Mozilla/5.0 (Windows NT 10.0; Win64; x64) AppleWebKit/537.36 (KHTML, like Gecko) Chrome/87.0.4280.88 Safari/537.36",WebKit,Chrome,87.0.4280.88,Windows,10.0
4,1,3086.8500000215136,"<p><span style=""color:red; font-weight:bold;"">Not all</span> correct responses will receive a reward.</p><p>At the end of the experiment you will be given the amount of money you have accumulated. The more correct identifications
          you make, the more money you will take home.</p><p>Press the spacebar to continue.</p>",32,html-keyboard-response,40,52701,0.0-2.0-2.0,circles,squares,squares,"""","""","""","""","""","""","""","""","""","""","""","""","""","2020-12-15 18:38:47",96.248.40.73,"Mozilla/5.0 (Windows NT 10.0; Win64; x64) AppleWebKit/537.36 (KHTML, like Gecko) Chrome/87.0.4280.88 Safari/537.36",WebKit,Chrome,87.0.4280.88,Windows,10.0
4,1,2041.3750000298023,"<p>We are now ready to begin the experiment.</p>
        <p>Remember, focus your attention on the fixation cross before each trial. If you think there are more circles
        press the ""A"" key. If you think there are more squares press the ""L"" key.</p>
        <p>Good luck!</p>
        <p>Press the spacebar to begin.</p>",32,html-keyboard-response,41,54745,0.0-2.0-3.0,circles,squares,squares,"""","""","""","""","""","""","""","""","""","""","""","""","""","2020-12-15 18:38:47",96.248.40.73,"Mozilla/5.0 (Windows NT 10.0; Win64; x64) AppleWebKit/537.36 (KHTML, like Gecko) Chrome/87.0.4280.88 Safari/537.36",WebKit,Chrome,87.0.4280.88,Windows,10.0
4,1,null,"<p class=""fixation"">+</p>",null,html-keyboard-response,42,55257,0.0-3.0-0.0-0.0,circles,squares,squares,test,1,"""","""","""","""","""","""","""","""","""","""","""","2020-12-15 18:38:47",96.248.40.73,"Mozilla/5.0 (Windows NT 10.0; Win64; x64) AppleWebKit/537.36 (KHTML, like Gecko) Chrome/87.0.4280.88 Safari/537.36",WebKit,Chrome,87.0.4280.88,Windows,10.0
4,1,1017.9599999682978,"<img src=""img/7S_10C_yellow6.jpg"" style=""width:500px;""></img>",76,html-keyboard-response,43,56277,0.0-3.0-0.0-1.0,circles,squares,squares,test,1,1,0,img/7S_10C_yellow6.jpg,0,0,respond,circles,squares,false,false,"""","2020-12-15 18:38:47",96.248.40.73,"Mozilla/5.0 (Windows NT 10.0; Win64; x64) AppleWebKit/537.36 (KHTML, like Gecko) Chrome/87.0.4280.88 Safari/537.36",WebKit,Chrome,87.0.4280.88,Windows,10.0
4,1,null,"""",null,html-keyboard-response,44,57792,0.0-3.0-0.0-3.0-0.0,circles,squares,squares,test,1,"""","""","""","""","""","""","""","""","""","""","""","2020-12-15 18:38:47",96.248.40.73,"Mozilla/5.0 (Windows NT 10.0; Win64; x64) AppleWebKit/537.36 (KHTML, like Gecko) Chrome/87.0.4280.88 Safari/537.36",WebKit,Chrome,87.0.4280.88,Windows,10.0
4,1,null,"<p class=""fixation"">+</p>",null,html-keyboard-response,45,58293,0.0-3.0-0.0-0.1,circles,squares,squares,test,1,"""","""","""","""","""","""","""","""","""","""","""","2020-12-15 18:38:47",96.248.40.73,"Mozilla/5.0 (Windows NT 10.0; Win64; x64) AppleWebKit/537.36 (KHTML, like Gecko) Chrome/87.0.4280.88 Safari/537.36",WebKit,Chrome,87.0.4280.88,Windows,10.0
4,1,1038.765000004787,"<img src=""img/7C_10S_yellow5.jpg"" style=""width:500px;""></img>",76,html-keyboard-response,46,59333,0.0-3.0-0.0-1.1,circles,squares,squares,test,1,2,1,img/7C_10S_yellow5.jpg,0,0,respond,squares,squares,true,true,"""","2020-12-15 18:38:47",96.248.40.73,"Mozilla/5.0 (Windows NT 10.0; Win64; x64) AppleWebKit/537.36 (KHTML, like Gecko) Chrome/87.0.4280.88 Safari/537.36",WebKit,Chrome,87.0.4280.88,Windows,10.0
4,1,null,mp3/reward-coin-drop.mp3,null,audio-keyboard-response,47,60849,0.0-3.0-0.0-2.1-0.1,circles,squares,squares,test,1,"""","""","""","""","""",reward-feedback,"""","""","""","""","""","2020-12-15 18:38:47",96.248.40.73,"Mozilla/5.0 (Windows NT 10.0; Win64; x64) AppleWebKit/537.36 (KHTML, like Gecko) Chrome/87.0.4280.88 Safari/537.36",WebKit,Chrome,87.0.4280.88,Windows,10.0
4,1,null,"<p class=""fixation"">+</p>",null,html-keyboard-response,48,61358,0.0-3.0-0.0-0.2,circles,squares,squares,test,1,"""","""","""","""","""","""","""","""","""","""","""","2020-12-15 18:38:47",96.248.40.73,"Mozilla/5.0 (Windows NT 10.0; Win64; x64) AppleWebKit/537.36 (KHTML, like Gecko) Chrome/87.0.4280.88 Safari/537.36",WebKit,Chrome,87.0.4280.88,Windows,10.0
4,1,595.0550000416115,"<img src=""img/7S_10C_yellow6.jpg"" style=""width:500px;""></img>",65,html-keyboard-response,49,61954,0.0-3.0-0.0-1.2,circles,squares,squares,test,1,3,0,img/7S_10C_yellow6.jpg,0,0,respond,circles,circles,true,false,"""","2020-12-15 18:38:47",96.248.40.73,"Mozilla/5.0 (Windows NT 10.0; Win64; x64) AppleWebKit/537.36 (KHTML, like Gecko) Chrome/87.0.4280.88 Safari/537.36",WebKit,Chrome,87.0.4280.88,Windows,10.0
4,1,null,"""",null,html-keyboard-response,50,63462,0.0-3.0-0.0-3.2-0.2,circles,squares,squares,test,1,"""","""","""","""","""","""","""","""","""","""","""","2020-12-15 18:38:47",96.248.40.73,"Mozilla/5.0 (Windows NT 10.0; Win64; x64) AppleWebKit/537.36 (KHTML, like Gecko) Chrome/87.0.4280.88 Safari/537.36",WebKit,Chrome,87.0.4280.88,Windows,10.0
4,1,null,"<p class=""fixation"">+</p>",null,html-keyboard-response,51,63979,0.0-3.0-0.0-0.3,circles,squares,squares,test,1,"""","""","""","""","""","""","""","""","""","""","""","2020-12-15 18:38:47",96.248.40.73,"Mozilla/5.0 (Windows NT 10.0; Win64; x64) AppleWebKit/537.36 (KHTML, like Gecko) Chrome/87.0.4280.88 Safari/537.36",WebKit,Chrome,87.0.4280.88,Windows,10.0
4,1,520.7500000251457,"<img src=""img/7C_10S_yellow3.jpg"" style=""width:500px;""></img>",76,html-keyboard-response,52,64502,0.0-3.0-0.0-1.3,circles,squares,squares,test,1,4,1,img/7C_10S_yellow3.jpg,0,0,respond,squares,squares,true,true,"""","2020-12-15 18:38:47",96.248.40.73,"Mozilla/5.0 (Windows NT 10.0; Win64; x64) AppleWebKit/537.36 (KHTML, like Gecko) Chrome/87.0.4280.88 Safari/537.36",WebKit,Chrome,87.0.4280.88,Windows,10.0
4,1,null,mp3/reward-coin-drop.mp3,null,audio-keyboard-response,53,66003,0.0-3.0-0.0-2.3-0.3,circles,squares,squares,test,1,"""","""","""","""","""",reward-feedback,"""","""","""","""","""","2020-12-15 18:38:47",96.248.40.73,"Mozilla/5.0 (Windows NT 10.0; Win64; x64) AppleWebKit/537.36 (KHTML, like Gecko) Chrome/87.0.4280.88 Safari/537.36",WebKit,Chrome,87.0.4280.88,Windows,10.0
4,1,null,"<p class=""fixation"">+</p>",null,html-keyboard-response,54,66505,0.0-3.0-0.0-0.4,circles,squares,squares,test,1,"""","""","""","""","""","""","""","""","""","""","""","2020-12-15 18:38:47",96.248.40.73,"Mozilla/5.0 (Windows NT 10.0; Win64; x64) AppleWebKit/537.36 (KHTML, like Gecko) Chrome/87.0.4280.88 Safari/537.36",WebKit,Chrome,87.0.4280.88,Windows,10.0
4,1,829.1999999783002,"<img src=""img/7S_10C_yellow7.jpg"" style=""width:500px;""></img>",65,html-keyboard-response,55,67337,0.0-3.0-0.0-1.4,circles,squares,squares,test,1,5,0,img/7S_10C_yellow7.jpg,0,0,respond,circles,circles,true,false,"""","2020-12-15 18:38:47",96.248.40.73,"Mozilla/5.0 (Windows NT 10.0; Win64; x64) AppleWebKit/537.36 (KHTML, like Gecko) Chrome/87.0.4280.88 Safari/537.36",WebKit,Chrome,87.0.4280.88,Windows,10.0
4,1,null,"""",null,html-keyboard-response,56,68846,0.0-3.0-0.0-3.4-0.4,circles,squares,squares,test,1,"""","""","""","""","""","""","""","""","""","""","""","2020-12-15 18:38:47",96.248.40.73,"Mozilla/5.0 (Windows NT 10.0; Win64; x64) AppleWebKit/537.36 (KHTML, like Gecko) Chrome/87.0.4280.88 Safari/537.36",WebKit,Chrome,87.0.4280.88,Windows,10.0
4,1,null,"<p class=""fixation"">+</p>",null,html-keyboard-response,57,69354,0.0-3.0-0.0-0.5,circles,squares,squares,test,1,"""","""","""","""","""","""","""","""","""","""","""","2020-12-15 18:38:47",96.248.40.73,"Mozilla/5.0 (Windows NT 10.0; Win64; x64) AppleWebKit/537.36 (KHTML, like Gecko) Chrome/87.0.4280.88 Safari/537.36",WebKit,Chrome,87.0.4280.88,Windows,10.0
4,1,669.9150000349618,"<img src=""img/7S_10C_yellow7.jpg"" style=""width:500px;""></img>",65,html-keyboard-response,58,70027,0.0-3.0-0.0-1.5,circles,squares,squares,test,1,6,0,img/7S_10C_yellow7.jpg,0,0,respond,circles,circles,true,false,"""","2020-12-15 18:38:47",96.248.40.73,"Mozilla/5.0 (Windows NT 10.0; Win64; x64) AppleWebKit/537.36 (KHTML, like Gecko) Chrome/87.0.4280.88 Safari/537.36",WebKit,Chrome,87.0.4280.88,Windows,10.0
4,1,null,"""",null,html-keyboard-response,59,71534,0.0-3.0-0.0-3.5-0.5,circles,squares,squares,test,1,"""","""","""","""","""","""","""","""","""","""","""","2020-12-15 18:38:47",96.248.40.73,"Mozilla/5.0 (Windows NT 10.0; Win64; x64) AppleWebKit/537.36 (KHTML, like Gecko) Chrome/87.0.4280.88 Safari/537.36",WebKit,Chrome,87.0.4280.88,Windows,10.0
4,1,null,"<p class=""fixation"">+</p>",null,html-keyboard-response,60,72042,0.0-3.0-0.0-0.6,circles,squares,squares,test,1,"""","""","""","""","""","""","""","""","""","""","""","2020-12-15 18:38:47",96.248.40.73,"Mozilla/5.0 (Windows NT 10.0; Win64; x64) AppleWebKit/537.36 (KHTML, like Gecko) Chrome/87.0.4280.88 Safari/537.36",WebKit,Chrome,87.0.4280.88,Windows,10.0
4,1,439.65999997453764,"<img src=""img/7S_10C_yellow6.jpg"" style=""width:500px;""></img>",76,html-keyboard-response,61,72482,0.0-3.0-0.0-1.6,circles,squares,squares,test,1,7,0,img/7S_10C_yellow6.jpg,0,0,respond,circles,squares,false,false,"""","2020-12-15 18:38:47",96.248.40.73,"Mozilla/5.0 (Windows NT 10.0; Win64; x64) AppleWebKit/537.36 (KHTML, like Gecko) Chrome/87.0.4280.88 Safari/537.36",WebKit,Chrome,87.0.4280.88,Windows,10.0
4,1,null,"""",null,html-keyboard-response,62,73998,0.0-3.0-0.0-3.6-0.6,circles,squares,squares,test,1,"""","""","""","""","""","""","""","""","""","""","""","2020-12-15 18:38:47",96.248.40.73,"Mozilla/5.0 (Windows NT 10.0; Win64; x64) AppleWebKit/537.36 (KHTML, like Gecko) Chrome/87.0.4280.88 Safari/537.36",WebKit,Chrome,87.0.4280.88,Windows,10.0
4,1,null,"<p class=""fixation"">+</p>",null,html-keyboard-response,63,74499,0.0-3.0-0.0-0.7,circles,squares,squares,test,1,"""","""","""","""","""","""","""","""","""","""","""","2020-12-15 18:38:47",96.248.40.73,"Mozilla/5.0 (Windows NT 10.0; Win64; x64) AppleWebKit/537.36 (KHTML, like Gecko) Chrome/87.0.4280.88 Safari/537.36",WebKit,Chrome,87.0.4280.88,Windows,10.0
4,1,477.1399999735877,"<img src=""img/7C_10S_yellow5.jpg"" style=""width:500px;""></img>",76,html-keyboard-response,64,74977,0.0-3.0-0.0-1.7,circles,squares,squares,test,1,8,1,img/7C_10S_yellow5.jpg,0,0,respond,squares,squares,true,true,"""","2020-12-15 18:38:47",96.248.40.73,"Mozilla/5.0 (Windows NT 10.0; Win64; x64) AppleWebKit/537.36 (KHTML, like Gecko) Chrome/87.0.4280.88 Safari/537.36",WebKit,Chrome,87.0.4280.88,Windows,10.0
4,1,null,mp3/reward-coin-drop.mp3,null,audio-keyboard-response,65,76480,0.0-3.0-0.0-2.7-0.7,circles,squares,squares,test,1,"""","""","""","""","""",reward-feedback,"""","""","""","""","""","2020-12-15 18:38:47",96.248.40.73,"Mozilla/5.0 (Windows NT 10.0; Win64; x64) AppleWebKit/537.36 (KHTML, like Gecko) Chrome/87.0.4280.88 Safari/537.36",WebKit,Chrome,87.0.4280.88,Windows,10.0
4,1,null,"<p class=""fixation"">+</p>",null,html-keyboard-response,66,76991,0.0-3.0-0.0-0.8,circles,squares,squares,test,1,"""","""","""","""","""","""","""","""","""","""","""","2020-12-15 18:38:47",96.248.40.73,"Mozilla/5.0 (Windows NT 10.0; Win64; x64) AppleWebKit/537.36 (KHTML, like Gecko) Chrome/87.0.4280.88 Safari/537.36",WebKit,Chrome,87.0.4280.88,Windows,10.0
4,1,614.8200000170618,"<img src=""img/7S_10C_yellow9.jpg"" style=""width:500px;""></img>",65,html-keyboard-response,67,77607,0.0-3.0-0.0-1.8,circles,squares,squares,test,1,9,0,img/7S_10C_yellow9.jpg,0,0,respond,circles,circles,true,false,"""","2020-12-15 18:38:47",96.248.40.73,"Mozilla/5.0 (Windows NT 10.0; Win64; x64) AppleWebKit/537.36 (KHTML, like Gecko) Chrome/87.0.4280.88 Safari/537.36",WebKit,Chrome,87.0.4280.88,Windows,10.0
4,1,null,"""",null,html-keyboard-response,68,79121,0.0-3.0-0.0-3.8-0.8,circles,squares,squares,test,1,"""","""","""","""","""","""","""","""","""","""","""","2020-12-15 18:38:47",96.248.40.73,"Mozilla/5.0 (Windows NT 10.0; Win64; x64) AppleWebKit/537.36 (KHTML, like Gecko) Chrome/87.0.4280.88 Safari/537.36",WebKit,Chrome,87.0.4280.88,Windows,10.0
4,1,null,"<p class=""fixation"">+</p>",null,html-keyboard-response,69,79625,0.0-3.0-0.0-0.9,circles,squares,squares,test,1,"""","""","""","""","""","""","""","""","""","""","""","2020-12-15 18:38:47",96.248.40.73,"Mozilla/5.0 (Windows NT 10.0; Win64; x64) AppleWebKit/537.36 (KHTML, like Gecko) Chrome/87.0.4280.88 Safari/537.36",WebKit,Chrome,87.0.4280.88,Windows,10.0
4,1,441.15500000771135,"<img src=""img/7S_10C_yellow10.jpg"" style=""width:500px;""></img>",76,html-keyboard-response,70,80069,0.0-3.0-0.0-1.9,circles,squares,squares,test,1,10,1,img/7S_10C_yellow10.jpg,0,0,respond,circles,squares,false,false,"""","2020-12-15 18:38:47",96.248.40.73,"Mozilla/5.0 (Windows NT 10.0; Win64; x64) AppleWebKit/537.36 (KHTML, like Gecko) Chrome/87.0.4280.88 Safari/537.36",WebKit,Chrome,87.0.4280.88,Windows,10.0
4,1,null,"""",null,html-keyboard-response,71,81571,0.0-3.0-0.0-3.9-0.9,circles,squares,squares,test,1,"""","""","""","""","""","""","""","""","""","""","""","2020-12-15 18:38:47",96.248.40.73,"Mozilla/5.0 (Windows NT 10.0; Win64; x64) AppleWebKit/537.36 (KHTML, like Gecko) Chrome/87.0.4280.88 Safari/537.36",WebKit,Chrome,87.0.4280.88,Windows,10.0
4,1,null,"<p class=""fixation"">+</p>",null,html-keyboard-response,72,82083,0.0-3.0-0.0-0.10,circles,squares,squares,test,1,"""","""","""","""","""","""","""","""","""","""","""","2020-12-15 18:38:47",96.248.40.73,"Mozilla/5.0 (Windows NT 10.0; Win64; x64) AppleWebKit/537.36 (KHTML, like Gecko) Chrome/87.0.4280.88 Safari/537.36",WebKit,Chrome,87.0.4280.88,Windows,10.0
4,1,673.880000016652,"<img src=""img/7C_10S_yellow4.jpg"" style=""width:500px;""></img>",76,html-keyboard-response,73,82758,0.0-3.0-0.0-1.10,circles,squares,squares,test,1,11,1,img/7C_10S_yellow4.jpg,1,0,respond,squares,squares,true,true,"""","2020-12-15 18:38:47",96.248.40.73,"Mozilla/5.0 (Windows NT 10.0; Win64; x64) AppleWebKit/537.36 (KHTML, like Gecko) Chrome/87.0.4280.88 Safari/537.36",WebKit,Chrome,87.0.4280.88,Windows,10.0
4,1,null,mp3/reward-coin-drop.mp3,null,audio-keyboard-response,74,84261,0.0-3.0-0.0-2.10-0.10,circles,squares,squares,test,1,"""","""","""","""","""",reward-feedback,"""","""","""","""","""","2020-12-15 18:38:47",96.248.40.73,"Mozilla/5.0 (Windows NT 10.0; Win64; x64) AppleWebKit/537.36 (KHTML, like Gecko) Chrome/87.0.4280.88 Safari/537.36",WebKit,Chrome,87.0.4280.88,Windows,10.0
4,1,null,"<p class=""fixation"">+</p>",null,html-keyboard-response,75,84765,0.0-3.0-0.0-0.11,circles,squares,squares,test,1,"""","""","""","""","""","""","""","""","""","""","""","2020-12-15 18:38:47",96.248.40.73,"Mozilla/5.0 (Windows NT 10.0; Win64; x64) AppleWebKit/537.36 (KHTML, like Gecko) Chrome/87.0.4280.88 Safari/537.36",WebKit,Chrome,87.0.4280.88,Windows,10.0
4,1,650.0849999720231,"<img src=""img/7S_10C_yellow10.jpg"" style=""width:500px;""></img>",65,html-keyboard-response,76,85416,0.0-3.0-0.0-1.11,circles,squares,squares,test,1,12,0,img/7S_10C_yellow10.jpg,1,0,respond,circles,circles,true,false,"""","2020-12-15 18:38:47",96.248.40.73,"Mozilla/5.0 (Windows NT 10.0; Win64; x64) AppleWebKit/537.36 (KHTML, like Gecko) Chrome/87.0.4280.88 Safari/537.36",WebKit,Chrome,87.0.4280.88,Windows,10.0
4,1,null,"""",null,html-keyboard-response,77,86919,0.0-3.0-0.0-3.11-0.11,circles,squares,squares,test,1,"""","""","""","""","""","""","""","""","""","""","""","2020-12-15 18:38:47",96.248.40.73,"Mozilla/5.0 (Windows NT 10.0; Win64; x64) AppleWebKit/537.36 (KHTML, like Gecko) Chrome/87.0.4280.88 Safari/537.36",WebKit,Chrome,87.0.4280.88,Windows,10.0
4,1,null,"<p class=""fixation"">+</p>",null,html-keyboard-response,78,87437,0.0-3.0-0.0-0.12,circles,squares,squares,test,1,"""","""","""","""","""","""","""","""","""","""","""","2020-12-15 18:38:47",96.248.40.73,"Mozilla/5.0 (Windows NT 10.0; Win64; x64) AppleWebKit/537.36 (KHTML, like Gecko) Chrome/87.0.4280.88 Safari/537.36",WebKit,Chrome,87.0.4280.88,Windows,10.0
4,1,3207.2899999911897,"<img src=""img/7C_10S_yellow4.jpg"" style=""width:500px;""></img>",65,html-keyboard-response,79,90646,0.0-3.0-0.0-1.12,circles,squares,squares,test,1,13,1,img/7C_10S_yellow4.jpg,0,0,respond,squares,circles,false,false,"""","2020-12-15 18:38:47",96.248.40.73,"Mozilla/5.0 (Windows NT 10.0; Win64; x64) AppleWebKit/537.36 (KHTML, like Gecko) Chrome/87.0.4280.88 Safari/537.36",WebKit,Chrome,87.0.4280.88,Windows,10.0
4,1,null,"""",null,html-keyboard-response,80,92148,0.0-3.0-0.0-3.12-0.12,circles,squares,squares,test,1,"""","""","""","""","""","""","""","""","""","""","""","2020-12-15 18:38:47",96.248.40.73,"Mozilla/5.0 (Windows NT 10.0; Win64; x64) AppleWebKit/537.36 (KHTML, like Gecko) Chrome/87.0.4280.88 Safari/537.36",WebKit,Chrome,87.0.4280.88,Windows,10.0
4,1,null,"<p class=""fixation"">+</p>",null,html-keyboard-response,81,92650,0.0-3.0-0.0-0.13,circles,squares,squares,test,1,"""","""","""","""","""","""","""","""","""","""","""","2020-12-15 18:38:47",96.248.40.73,"Mozilla/5.0 (Windows NT 10.0; Win64; x64) AppleWebKit/537.36 (KHTML, like Gecko) Chrome/87.0.4280.88 Safari/537.36",WebKit,Chrome,87.0.4280.88,Windows,10.0
4,1,22245.400000014342,"<img src=""img/7S_10C_yellow8.jpg"" style=""width:500px;""></img>",65,html-keyboard-response,82,114896,0.0-3.0-0.0-1.13,circles,squares,squares,test,1,14,1,img/7S_10C_yellow8.jpg,0,1,respond,circles,circles,true,true,"""","2020-12-15 18:38:47",96.248.40.73,"Mozilla/5.0 (Windows NT 10.0; Win64; x64) AppleWebKit/537.36 (KHTML, like Gecko) Chrome/87.0.4280.88 Safari/537.36",WebKit,Chrome,87.0.4280.88,Windows,10.0
4,1,null,mp3/reward-coin-drop.mp3,null,audio-keyboard-response,83,116412,0.0-3.0-0.0-2.13-0.13,circles,squares,squares,test,1,"""","""","""","""","""",reward-feedback,"""","""","""","""","""","2020-12-15 18:38:47",96.248.40.73,"Mozilla/5.0 (Windows NT 10.0; Win64; x64) AppleWebKit/537.36 (KHTML, like Gecko) Chrome/87.0.4280.88 Safari/537.36",WebKit,Chrome,87.0.4280.88,Windows,10.0
4,1,null,"<p class=""fixation"">+</p>",null,html-keyboard-response,84,116923,0.0-3.0-0.0-0.14,circles,squares,squares,test,1,"""","""","""","""","""","""","""","""","""","""","""","2020-12-15 18:38:47",96.248.40.73,"Mozilla/5.0 (Windows NT 10.0; Win64; x64) AppleWebKit/537.36 (KHTML, like Gecko) Chrome/87.0.4280.88 Safari/537.36",WebKit,Chrome,87.0.4280.88,Windows,10.0
4,1,5895.874999987427,"<img src=""img/7C_10S_yellow6.jpg"" style=""width:500px;""></img>",65,html-keyboard-response,85,122820,0.0-3.0-0.0-1.14,circles,squares,squares,test,1,15,0,img/7C_10S_yellow6.jpg,0,1,respond,squares,circles,false,false,"""","2020-12-15 18:38:47",96.248.40.73,"Mozilla/5.0 (Windows NT 10.0; Win64; x64) AppleWebKit/537.36 (KHTML, like Gecko) Chrome/87.0.4280.88 Safari/537.36",WebKit,Chrome,87.0.4280.88,Windows,10.0
4,1,null,"""",null,html-keyboard-response,86,124332,0.0-3.0-0.0-3.14-0.14,circles,squares,squares,test,1,"""","""","""","""","""","""","""","""","""","""","""","2020-12-15 18:38:47",96.248.40.73,"Mozilla/5.0 (Windows NT 10.0; Win64; x64) AppleWebKit/537.36 (KHTML, like Gecko) Chrome/87.0.4280.88 Safari/537.36",WebKit,Chrome,87.0.4280.88,Windows,10.0
4,1,null,"<p class=""fixation"">+</p>",null,html-keyboard-response,87,124848,0.0-3.0-0.0-0.15,circles,squares,squares,test,1,"""","""","""","""","""","""","""","""","""","""","""","2020-12-15 18:38:47",96.248.40.73,"Mozilla/5.0 (Windows NT 10.0; Win64; x64) AppleWebKit/537.36 (KHTML, like Gecko) Chrome/87.0.4280.88 Safari/537.36",WebKit,Chrome,87.0.4280.88,Windows,10.0
4,1,903.4300000057556,"<img src=""img/7C_10S_yellow5.jpg"" style=""width:500px;""></img>",65,html-keyboard-response,88,125755,0.0-3.0-0.0-1.15,circles,squares,squares,test,1,16,1,img/7C_10S_yellow5.jpg,0,1,respond,squares,circles,false,false,"""","2020-12-15 18:38:47",96.248.40.73,"Mozilla/5.0 (Windows NT 10.0; Win64; x64) AppleWebKit/537.36 (KHTML, like Gecko) Chrome/87.0.4280.88 Safari/537.36",WebKit,Chrome,87.0.4280.88,Windows,10.0
4,1,null,"""",null,html-keyboard-response,89,127262,0.0-3.0-0.0-3.15-0.15,circles,squares,squares,test,1,"""","""","""","""","""","""","""","""","""","""","""","2020-12-15 18:38:47",96.248.40.73,"Mozilla/5.0 (Windows NT 10.0; Win64; x64) AppleWebKit/537.36 (KHTML, like Gecko) Chrome/87.0.4280.88 Safari/537.36",WebKit,Chrome,87.0.4280.88,Windows,10.0
4,1,null,"<p class=""fixation"">+</p>",null,html-keyboard-response,90,127772,0.0-3.0-0.0-0.16,circles,squares,squares,test,1,"""","""","""","""","""","""","""","""","""","""","""","2020-12-15 18:38:47",96.248.40.73,"Mozilla/5.0 (Windows NT 10.0; Win64; x64) AppleWebKit/537.36 (KHTML, like Gecko) Chrome/87.0.4280.88 Safari/537.36",WebKit,Chrome,87.0.4280.88,Windows,10.0
4,1,4415.615000005346,"<img src=""img/7S_10C_yellow8.jpg"" style=""width:500px;""></img>",65,html-keyboard-response,91,132188,0.0-3.0-0.0-1.16,circles,squares,squares,test,1,17,0,img/7S_10C_yellow8.jpg,0,2,respond,circles,circles,true,false,"""","2020-12-15 18:38:47",96.248.40.73,"Mozilla/5.0 (Windows NT 10.0; Win64; x64) AppleWebKit/537.36 (KHTML, like Gecko) Chrome/87.0.4280.88 Safari/537.36",WebKit,Chrome,87.0.4280.88,Windows,10.0
4,1,null,"""",null,html-keyboard-response,92,133697,0.0-3.0-0.0-3.16-0.16,circles,squares,squares,test,1,"""","""","""","""","""","""","""","""","""","""","""","2020-12-15 18:38:47",96.248.40.73,"Mozilla/5.0 (Windows NT 10.0; Win64; x64) AppleWebKit/537.36 (KHTML, like Gecko) Chrome/87.0.4280.88 Safari/537.36",WebKit,Chrome,87.0.4280.88,Windows,10.0
4,1,null,"<p class=""fixation"">+</p>",null,html-keyboard-response,93,134202,0.0-3.0-0.0-0.17,circles,squares,squares,test,1,"""","""","""","""","""","""","""","""","""","""","""","2020-12-15 18:38:47",96.248.40.73,"Mozilla/5.0 (Windows NT 10.0; Win64; x64) AppleWebKit/537.36 (KHTML, like Gecko) Chrome/87.0.4280.88 Safari/537.36",WebKit,Chrome,87.0.4280.88,Windows,10.0
4,1,107644.53999995021,"<img src=""img/7S_10C_yellow7.jpg"" style=""width:500px;""></img>",65,html-keyboard-response,94,241847,0.0-3.0-0.0-1.17,circles,squares,squares,test,1,18,0,img/7S_10C_yellow7.jpg,0,2,respond,circles,circles,true,false,"""","2020-12-15 18:38:47",96.248.40.73,"Mozilla/5.0 (Windows NT 10.0; Win64; x64) AppleWebKit/537.36 (KHTML, like Gecko) Chrome/87.0.4280.88 Safari/537.36",WebKit,Chrome,87.0.4280.88,Windows,10.0
4,1,null,"""",null,html-keyboard-response,95,243360,0.0-3.0-0.0-3.17-0.17,circles,squares,squares,test,1,"""","""","""","""","""","""","""","""","""","""","""","2020-12-15 18:38:47",96.248.40.73,"Mozilla/5.0 (Windows NT 10.0; Win64; x64) AppleWebKit/537.36 (KHTML, like Gecko) Chrome/87.0.4280.88 Safari/537.36",WebKit,Chrome,87.0.4280.88,Windows,10.0
4,1,null,"<p class=""fixation"">+</p>",null,html-keyboard-response,96,243863,0.0-3.0-0.0-0.18,circles,squares,squares,test,1,"""","""","""","""","""","""","""","""","""","""","""","2020-12-15 18:38:47",96.248.40.73,"Mozilla/5.0 (Windows NT 10.0; Win64; x64) AppleWebKit/537.36 (KHTML, like Gecko) Chrome/87.0.4280.88 Safari/537.36",WebKit,Chrome,87.0.4280.88,Windows,10.0
4,1,2973.5700000310317,"<img src=""img/7S_10C_yellow10.jpg"" style=""width:500px;""></img>",65,html-keyboard-response,97,246838,0.0-3.0-0.0-1.18,circles,squares,squares,test,1,19,1,img/7S_10C_yellow10.jpg,0,2,respond,circles,circles,true,true,"""","2020-12-15 18:38:47",96.248.40.73,"Mozilla/5.0 (Windows NT 10.0; Win64; x64) AppleWebKit/537.36 (KHTML, like Gecko) Chrome/87.0.4280.88 Safari/537.36",WebKit,Chrome,87.0.4280.88,Windows,10.0
4,1,null,mp3/reward-coin-drop.mp3,null,audio-keyboard-response,98,248344,0.0-3.0-0.0-2.18-0.18,circles,squares,squares,test,1,"""","""","""","""","""",reward-feedback,"""","""","""","""","""","2020-12-15 18:38:47",96.248.40.73,"Mozilla/5.0 (Windows NT 10.0; Win64; x64) AppleWebKit/537.36 (KHTML, like Gecko) Chrome/87.0.4280.88 Safari/537.36",WebKit,Chrome,87.0.4280.88,Windows,10.0
4,1,null,"<p class=""fixation"">+</p>",null,html-keyboard-response,99,248853,0.0-3.0-0.0-0.19,circles,squares,squares,test,1,"""","""","""","""","""","""","""","""","""","""","""","2020-12-15 18:38:47",96.248.40.73,"Mozilla/5.0 (Windows NT 10.0; Win64; x64) AppleWebKit/537.36 (KHTML, like Gecko) Chrome/87.0.4280.88 Safari/537.36",WebKit,Chrome,87.0.4280.88,Windows,10.0
4,1,7994.104999990668,"<img src=""img/7C_10S_yellow5.jpg"" style=""width:500px;""></img>",65,html-keyboard-response,100,256848,0.0-3.0-0.0-1.19,circles,squares,squares,test,1,20,1,img/7C_10S_yellow5.jpg,0,2,respond,squares,circles,false,false,"""","2020-12-15 18:38:47",96.248.40.73,"Mozilla/5.0 (Windows NT 10.0; Win64; x64) AppleWebKit/537.36 (KHTML, like Gecko) Chrome/87.0.4280.88 Safari/537.36",WebKit,Chrome,87.0.4280.88,Windows,10.0
4,1,null,"""",null,html-keyboard-response,101,258354,0.0-3.0-0.0-3.19-0.19,circles,squares,squares,test,1,"""","""","""","""","""","""","""","""","""","""","""","2020-12-15 18:38:47",96.248.40.73,"Mozilla/5.0 (Windows NT 10.0; Win64; x64) AppleWebKit/537.36 (KHTML, like Gecko) Chrome/87.0.4280.88 Safari/537.36",WebKit,Chrome,87.0.4280.88,Windows,10.0
4,1,null,"<p class=""fixation"">+</p>",null,html-keyboard-response,102,258862,0.0-3.0-0.0-0.20,circles,squares,squares,test,1,"""","""","""","""","""","""","""","""","""","""","""","2020-12-15 18:38:47",96.248.40.73,"Mozilla/5.0 (Windows NT 10.0; Win64; x64) AppleWebKit/537.36 (KHTML, like Gecko) Chrome/87.0.4280.88 Safari/537.36",WebKit,Chrome,87.0.4280.88,Windows,10.0
4,1,489.69499999657273,"<img src=""img/7C_10S_yellow5.jpg"" style=""width:500px;""></img>",65,html-keyboard-response,103,259354,0.0-3.0-0.0-1.20,circles,squares,squares,test,1,21,0,img/7C_10S_yellow5.jpg,0,3,respond,squares,circles,false,false,"""","2020-12-15 18:38:47",96.248.40.73,"Mozilla/5.0 (Windows NT 10.0; Win64; x64) AppleWebKit/537.36 (KHTML, like Gecko) Chrome/87.0.4280.88 Safari/537.36",WebKit,Chrome,87.0.4280.88,Windows,10.0
4,1,null,"""",null,html-keyboard-response,104,260865,0.0-3.0-0.0-3.20-0.20,circles,squares,squares,test,1,"""","""","""","""","""","""","""","""","""","""","""","2020-12-15 18:38:47",96.248.40.73,"Mozilla/5.0 (Windows NT 10.0; Win64; x64) AppleWebKit/537.36 (KHTML, like Gecko) Chrome/87.0.4280.88 Safari/537.36",WebKit,Chrome,87.0.4280.88,Windows,10.0
4,1,null,"<p class=""fixation"">+</p>",null,html-keyboard-response,105,261383,0.0-3.0-0.0-0.21,circles,squares,squares,test,1,"""","""","""","""","""","""","""","""","""","""","""","2020-12-15 18:38:47",96.248.40.73,"Mozilla/5.0 (Windows NT 10.0; Win64; x64) AppleWebKit/537.36 (KHTML, like Gecko) Chrome/87.0.4280.88 Safari/537.36",WebKit,Chrome,87.0.4280.88,Windows,10.0
4,1,460.06500005023554,"<img src=""img/7S_10C_yellow6.jpg"" style=""width:500px;""></img>",65,html-keyboard-response,106,261844,0.0-3.0-0.0-1.21,circles,squares,squares,test,1,22,0,img/7S_10C_yellow6.jpg,0,3,respond,circles,circles,true,false,"""","2020-12-15 18:38:47",96.248.40.73,"Mozilla/5.0 (Windows NT 10.0; Win64; x64) AppleWebKit/537.36 (KHTML, like Gecko) Chrome/87.0.4280.88 Safari/537.36",WebKit,Chrome,87.0.4280.88,Windows,10.0
4,1,null,"""",null,html-keyboard-response,107,263353,0.0-3.0-0.0-3.21-0.21,circles,squares,squares,test,1,"""","""","""","""","""","""","""","""","""","""","""","2020-12-15 18:38:47",96.248.40.73,"Mozilla/5.0 (Windows NT 10.0; Win64; x64) AppleWebKit/537.36 (KHTML, like Gecko) Chrome/87.0.4280.88 Safari/537.36",WebKit,Chrome,87.0.4280.88,Windows,10.0
4,1,null,"<p class=""fixation"">+</p>",null,html-keyboard-response,108,263857,0.0-3.0-0.0-0.22,circles,squares,squares,test,1,"""","""","""","""","""","""","""","""","""","""","""","2020-12-15 18:38:47",96.248.40.73,"Mozilla/5.0 (Windows NT 10.0; Win64; x64) AppleWebKit/537.36 (KHTML, like Gecko) Chrome/87.0.4280.88 Safari/537.36",WebKit,Chrome,87.0.4280.88,Windows,10.0
4,1,2985.9850000357255,"<img src=""img/7C_10S_yellow6.jpg"" style=""width:500px;""></img>",65,html-keyboard-response,109,266847,0.0-3.0-0.0-1.22,circles,squares,squares,test,1,23,1,img/7C_10S_yellow6.jpg,0,3,respond,squares,circles,false,false,"""","2020-12-15 18:38:47",96.248.40.73,"Mozilla/5.0 (Windows NT 10.0; Win64; x64) AppleWebKit/537.36 (KHTML, like Gecko) Chrome/87.0.4280.88 Safari/537.36",WebKit,Chrome,87.0.4280.88,Windows,10.0
4,1,null,"""",null,html-keyboard-response,110,268360,0.0-3.0-0.0-3.22-0.22,circles,squares,squares,test,1,"""","""","""","""","""","""","""","""","""","""","""","2020-12-15 18:38:47",96.248.40.73,"Mozilla/5.0 (Windows NT 10.0; Win64; x64) AppleWebKit/537.36 (KHTML, like Gecko) Chrome/87.0.4280.88 Safari/537.36",WebKit,Chrome,87.0.4280.88,Windows,10.0
4,1,null,"<p class=""fixation"">+</p>",null,html-keyboard-response,111,268865,0.0-3.0-0.0-0.23,circles,squares,squares,test,1,"""","""","""","""","""","""","""","""","""","""","""","2020-12-15 18:38:47",96.248.40.73,"Mozilla/5.0 (Windows NT 10.0; Win64; x64) AppleWebKit/537.36 (KHTML, like Gecko) Chrome/87.0.4280.88 Safari/537.36",WebKit,Chrome,87.0.4280.88,Windows,10.0
4,1,473.14499999629334,"<img src=""img/7S_10C_yellow8.jpg"" style=""width:500px;""></img>",65,html-keyboard-response,112,269340,0.0-3.0-0.0-1.23,circles,squares,squares,test,1,24,1,img/7S_10C_yellow8.jpg,0,4,respond,circles,circles,true,true,"""","2020-12-15 18:38:47",96.248.40.73,"Mozilla/5.0 (Windows NT 10.0; Win64; x64) AppleWebKit/537.36 (KHTML, like Gecko) Chrome/87.0.4280.88 Safari/537.36",WebKit,Chrome,87.0.4280.88,Windows,10.0
4,1,null,mp3/reward-coin-drop.mp3,null,audio-keyboard-response,113,270844,0.0-3.0-0.0-2.23-0.23,circles,squares,squares,test,1,"""","""","""","""","""",reward-feedback,"""","""","""","""","""","2020-12-15 18:38:47",96.248.40.73,"Mozilla/5.0 (Windows NT 10.0; Win64; x64) AppleWebKit/537.36 (KHTML, like Gecko) Chrome/87.0.4280.88 Safari/537.36",WebKit,Chrome,87.0.4280.88,Windows,10.0
4,1,null,"<p class=""fixation"">+</p>",null,html-keyboard-response,114,271357,0.0-3.0-0.0-0.24,circles,squares,squares,test,1,"""","""","""","""","""","""","""","""","""","""","""","2020-12-15 18:38:47",96.248.40.73,"Mozilla/5.0 (Windows NT 10.0; Win64; x64) AppleWebKit/537.36 (KHTML, like Gecko) Chrome/87.0.4280.88 Safari/537.36",WebKit,Chrome,87.0.4280.88,Windows,10.0
4,1,474.06999999657273,"<img src=""img/7C_10S_yellow6.jpg"" style=""width:500px;""></img>",65,html-keyboard-response,115,271839,0.0-3.0-0.0-1.24,circles,squares,squares,test,1,25,0,img/7C_10S_yellow6.jpg,0,4,respond,squares,circles,false,false,"""","2020-12-15 18:38:47",96.248.40.73,"Mozilla/5.0 (Windows NT 10.0; Win64; x64) AppleWebKit/537.36 (KHTML, like Gecko) Chrome/87.0.4280.88 Safari/537.36",WebKit,Chrome,87.0.4280.88,Windows,10.0
4,1,null,"""",null,html-keyboard-response,116,273343,0.0-3.0-0.0-3.24-0.24,circles,squares,squares,test,1,"""","""","""","""","""","""","""","""","""","""","""","2020-12-15 18:38:47",96.248.40.73,"Mozilla/5.0 (Windows NT 10.0; Win64; x64) AppleWebKit/537.36 (KHTML, like Gecko) Chrome/87.0.4280.88 Safari/537.36",WebKit,Chrome,87.0.4280.88,Windows,10.0
4,1,null,"<p class=""fixation"">+</p>",null,html-keyboard-response,117,273850,0.0-3.0-0.0-0.25,circles,squares,squares,test,1,"""","""","""","""","""","""","""","""","""","""","""","2020-12-15 18:38:47",96.248.40.73,"Mozilla/5.0 (Windows NT 10.0; Win64; x64) AppleWebKit/537.36 (KHTML, like Gecko) Chrome/87.0.4280.88 Safari/537.36",WebKit,Chrome,87.0.4280.88,Windows,10.0
4,1,5487.330000032671,"<img src=""img/7C_10S_yellow5.jpg"" style=""width:500px;""></img>",65,html-keyboard-response,118,279338,0.0-3.0-0.0-1.25,circles,squares,squares,test,1,26,1,img/7C_10S_yellow5.jpg,0,4,respond,squares,circles,false,false,"""","2020-12-15 18:38:47",96.248.40.73,"Mozilla/5.0 (Windows NT 10.0; Win64; x64) AppleWebKit/537.36 (KHTML, like Gecko) Chrome/87.0.4280.88 Safari/537.36",WebKit,Chrome,87.0.4280.88,Windows,10.0
4,1,null,"""",null,html-keyboard-response,119,280855,0.0-3.0-0.0-3.25-0.25,circles,squares,squares,test,1,"""","""","""","""","""","""","""","""","""","""","""","2020-12-15 18:38:47",96.248.40.73,"Mozilla/5.0 (Windows NT 10.0; Win64; x64) AppleWebKit/537.36 (KHTML, like Gecko) Chrome/87.0.4280.88 Safari/537.36",WebKit,Chrome,87.0.4280.88,Windows,10.0
4,1,null,"<p class=""fixation"">+</p>",null,html-keyboard-response,120,281361,0.0-3.0-0.0-0.26,circles,squares,squares,test,1,"""","""","""","""","""","""","""","""","""","""","""","2020-12-15 18:38:47",96.248.40.73,"Mozilla/5.0 (Windows NT 10.0; Win64; x64) AppleWebKit/537.36 (KHTML, like Gecko) Chrome/87.0.4280.88 Safari/537.36",WebKit,Chrome,87.0.4280.88,Windows,10.0
4,1,489.9650000152178,"<img src=""img/7C_10S_yellow5.jpg"" style=""width:500px;""></img>",65,html-keyboard-response,121,281852,0.0-3.0-0.0-1.26,circles,squares,squares,test,1,27,1,img/7C_10S_yellow5.jpg,0,5,respond,squares,circles,false,false,"""","2020-12-15 18:38:47",96.248.40.73,"Mozilla/5.0 (Windows NT 10.0; Win64; x64) AppleWebKit/537.36 (KHTML, like Gecko) Chrome/87.0.4280.88 Safari/537.36",WebKit,Chrome,87.0.4280.88,Windows,10.0
4,1,null,"""",null,html-keyboard-response,122,283359,0.0-3.0-0.0-3.26-0.26,circles,squares,squares,test,1,"""","""","""","""","""","""","""","""","""","""","""","2020-12-15 18:38:47",96.248.40.73,"Mozilla/5.0 (Windows NT 10.0; Win64; x64) AppleWebKit/537.36 (KHTML, like Gecko) Chrome/87.0.4280.88 Safari/537.36",WebKit,Chrome,87.0.4280.88,Windows,10.0
4,1,null,"<p class=""fixation"">+</p>",null,html-keyboard-response,123,283867,0.0-3.0-0.0-0.27,circles,squares,squares,test,1,"""","""","""","""","""","""","""","""","""","""","""","2020-12-15 18:38:47",96.248.40.73,"Mozilla/5.0 (Windows NT 10.0; Win64; x64) AppleWebKit/537.36 (KHTML, like Gecko) Chrome/87.0.4280.88 Safari/537.36",WebKit,Chrome,87.0.4280.88,Windows,10.0
4,1,471.9150000018999,"<img src=""img/7S_10C_yellow9.jpg"" style=""width:500px;""></img>",65,html-keyboard-response,124,284340,0.0-3.0-0.0-1.27,circles,squares,squares,test,1,28,0,img/7S_10C_yellow9.jpg,0,6,respond,circles,circles,true,false,"""","2020-12-15 18:38:47",96.248.40.73,"Mozilla/5.0 (Windows NT 10.0; Win64; x64) AppleWebKit/537.36 (KHTML, like Gecko) Chrome/87.0.4280.88 Safari/537.36",WebKit,Chrome,87.0.4280.88,Windows,10.0
4,1,null,"""",null,html-keyboard-response,125,285845,0.0-3.0-0.0-3.27-0.27,circles,squares,squares,test,1,"""","""","""","""","""","""","""","""","""","""","""","2020-12-15 18:38:47",96.248.40.73,"Mozilla/5.0 (Windows NT 10.0; Win64; x64) AppleWebKit/537.36 (KHTML, like Gecko) Chrome/87.0.4280.88 Safari/537.36",WebKit,Chrome,87.0.4280.88,Windows,10.0
4,1,null,"<p class=""fixation"">+</p>",null,html-keyboard-response,126,286352,0.0-3.0-0.0-0.28,circles,squares,squares,test,1,"""","""","""","""","""","""","""","""","""","""","""","2020-12-15 18:38:47",96.248.40.73,"Mozilla/5.0 (Windows NT 10.0; Win64; x64) AppleWebKit/537.36 (KHTML, like Gecko) Chrome/87.0.4280.88 Safari/537.36",WebKit,Chrome,87.0.4280.88,Windows,10.0
4,1,10493.659999978263,"<img src=""img/7C_10S_yellow4.jpg"" style=""width:500px;""></img>",65,html-keyboard-response,127,296849,0.0-3.0-0.0-1.28,circles,squares,squares,test,1,29,0,img/7C_10S_yellow4.jpg,0,6,respond,squares,circles,false,false,"""","2020-12-15 18:38:47",96.248.40.73,"Mozilla/5.0 (Windows NT 10.0; Win64; x64) AppleWebKit/537.36 (KHTML, like Gecko) Chrome/87.0.4280.88 Safari/537.36",WebKit,Chrome,87.0.4280.88,Windows,10.0
4,1,null,"""",null,html-keyboard-response,128,298356,0.0-3.0-0.0-3.28-0.28,circles,squares,squares,test,1,"""","""","""","""","""","""","""","""","""","""","""","2020-12-15 18:38:47",96.248.40.73,"Mozilla/5.0 (Windows NT 10.0; Win64; x64) AppleWebKit/537.36 (KHTML, like Gecko) Chrome/87.0.4280.88 Safari/537.36",WebKit,Chrome,87.0.4280.88,Windows,10.0
4,1,null,"<p class=""fixation"">+</p>",null,html-keyboard-response,129,298862,0.0-3.0-0.0-0.29,circles,squares,squares,test,1,"""","""","""","""","""","""","""","""","""","""","""","2020-12-15 18:38:47",96.248.40.73,"Mozilla/5.0 (Windows NT 10.0; Win64; x64) AppleWebKit/537.36 (KHTML, like Gecko) Chrome/87.0.4280.88 Safari/537.36",WebKit,Chrome,87.0.4280.88,Windows,10.0
4,1,475.16500001074746,"<img src=""img/7S_10C_yellow7.jpg"" style=""width:500px;""></img>",65,html-keyboard-response,130,299338,0.0-3.0-0.0-1.29,circles,squares,squares,test,1,30,0,img/7S_10C_yellow7.jpg,0,6,respond,circles,circles,true,false,"""","2020-12-15 18:38:47",96.248.40.73,"Mozilla/5.0 (Windows NT 10.0; Win64; x64) AppleWebKit/537.36 (KHTML, like Gecko) Chrome/87.0.4280.88 Safari/537.36",WebKit,Chrome,87.0.4280.88,Windows,10.0
4,1,null,"""",null,html-keyboard-response,131,300843,0.0-3.0-0.0-3.29-0.29,circles,squares,squares,test,1,"""","""","""","""","""","""","""","""","""","""","""","2020-12-15 18:38:47",96.248.40.73,"Mozilla/5.0 (Windows NT 10.0; Win64; x64) AppleWebKit/537.36 (KHTML, like Gecko) Chrome/87.0.4280.88 Safari/537.36",WebKit,Chrome,87.0.4280.88,Windows,10.0
4,1,null,"<p class=""fixation"">+</p>",null,html-keyboard-response,132,301350,0.0-3.0-0.0-0.30,circles,squares,squares,test,1,"""","""","""","""","""","""","""","""","""","""","""","2020-12-15 18:38:47",96.248.40.73,"Mozilla/5.0 (Windows NT 10.0; Win64; x64) AppleWebKit/537.36 (KHTML, like Gecko) Chrome/87.0.4280.88 Safari/537.36",WebKit,Chrome,87.0.4280.88,Windows,10.0
4,1,497.9450000100769,"<img src=""img/7S_10C_yellow6.jpg"" style=""width:500px;""></img>",65,html-keyboard-response,133,301853,0.0-3.0-0.0-1.30,circles,squares,squares,test,1,31,0,img/7S_10C_yellow6.jpg,0,6,respond,circles,circles,true,false,"""","2020-12-15 18:38:47",96.248.40.73,"Mozilla/5.0 (Windows NT 10.0; Win64; x64) AppleWebKit/537.36 (KHTML, like Gecko) Chrome/87.0.4280.88 Safari/537.36",WebKit,Chrome,87.0.4280.88,Windows,10.0
4,1,null,"""",null,html-keyboard-response,134,303360,0.0-3.0-0.0-3.30-0.30,circles,squares,squares,test,1,"""","""","""","""","""","""","""","""","""","""","""","2020-12-15 18:38:47",96.248.40.73,"Mozilla/5.0 (Windows NT 10.0; Win64; x64) AppleWebKit/537.36 (KHTML, like Gecko) Chrome/87.0.4280.88 Safari/537.36",WebKit,Chrome,87.0.4280.88,Windows,10.0
4,1,null,"<p class=""fixation"">+</p>",null,html-keyboard-response,135,303869,0.0-3.0-0.0-0.31,circles,squares,squares,test,1,"""","""","""","""","""","""","""","""","""","""","""","2020-12-15 18:38:47",96.248.40.73,"Mozilla/5.0 (Windows NT 10.0; Win64; x64) AppleWebKit/537.36 (KHTML, like Gecko) Chrome/87.0.4280.88 Safari/537.36",WebKit,Chrome,87.0.4280.88,Windows,10.0
4,1,2968.014999991283,"<img src=""img/7S_10C_yellow8.jpg"" style=""width:500px;""></img>",65,html-keyboard-response,136,306839,0.0-3.0-0.0-1.31,circles,squares,squares,test,1,32,0,img/7S_10C_yellow8.jpg,0,6,respond,circles,circles,true,false,"""","2020-12-15 18:38:47",96.248.40.73,"Mozilla/5.0 (Windows NT 10.0; Win64; x64) AppleWebKit/537.36 (KHTML, like Gecko) Chrome/87.0.4280.88 Safari/537.36",WebKit,Chrome,87.0.4280.88,Windows,10.0
4,1,null,"""",null,html-keyboard-response,137,308353,0.0-3.0-0.0-3.31-0.31,circles,squares,squares,test,1,"""","""","""","""","""","""","""","""","""","""","""","2020-12-15 18:38:47",96.248.40.73,"Mozilla/5.0 (Windows NT 10.0; Win64; x64) AppleWebKit/537.36 (KHTML, like Gecko) Chrome/87.0.4280.88 Safari/537.36",WebKit,Chrome,87.0.4280.88,Windows,10.0
4,1,null,"<p class=""fixation"">+</p>",null,html-keyboard-response,138,308863,0.0-3.0-0.0-0.32,circles,squares,squares,test,1,"""","""","""","""","""","""","""","""","""","""","""","2020-12-15 18:38:47",96.248.40.73,"Mozilla/5.0 (Windows NT 10.0; Win64; x64) AppleWebKit/537.36 (KHTML, like Gecko) Chrome/87.0.4280.88 Safari/537.36",WebKit,Chrome,87.0.4280.88,Windows,10.0
4,1,475.670000014361,"<img src=""img/7C_10S_yellow5.jpg"" style=""width:500px;""></img>",65,html-keyboard-response,139,309340,0.0-3.0-0.0-1.32,circles,squares,squares,test,1,33,0,img/7C_10S_yellow5.jpg,0,6,respond,squares,circles,false,false,"""","2020-12-15 18:38:47",96.248.40.73,"Mozilla/5.0 (Windows NT 10.0; Win64; x64) AppleWebKit/537.36 (KHTML, like Gecko) Chrome/87.0.4280.88 Safari/537.36",WebKit,Chrome,87.0.4280.88,Windows,10.0
4,1,null,"""",null,html-keyboard-response,140,310856,0.0-3.0-0.0-3.32-0.32,circles,squares,squares,test,1,"""","""","""","""","""","""","""","""","""","""","""","2020-12-15 18:38:47",96.248.40.73,"Mozilla/5.0 (Windows NT 10.0; Win64; x64) AppleWebKit/537.36 (KHTML, like Gecko) Chrome/87.0.4280.88 Safari/537.36",WebKit,Chrome,87.0.4280.88,Windows,10.0
4,1,null,"<p class=""fixation"">+</p>",null,html-keyboard-response,141,311361,0.0-3.0-0.0-0.33,circles,squares,squares,test,1,"""","""","""","""","""","""","""","""","""","""","""","2020-12-15 18:38:47",96.248.40.73,"Mozilla/5.0 (Windows NT 10.0; Win64; x64) AppleWebKit/537.36 (KHTML, like Gecko) Chrome/87.0.4280.88 Safari/537.36",WebKit,Chrome,87.0.4280.88,Windows,10.0
4,1,2985.994999995455,"<img src=""img/7C_10S_yellow5.jpg"" style=""width:500px;""></img>",65,html-keyboard-response,142,314348,0.0-3.0-0.0-1.33,circles,squares,squares,test,1,34,1,img/7C_10S_yellow5.jpg,0,6,respond,squares,circles,false,false,"""","2020-12-15 18:38:47",96.248.40.73,"Mozilla/5.0 (Windows NT 10.0; Win64; x64) AppleWebKit/537.36 (KHTML, like Gecko) Chrome/87.0.4280.88 Safari/537.36",WebKit,Chrome,87.0.4280.88,Windows,10.0
4,1,null,"""",null,html-keyboard-response,143,315867,0.0-3.0-0.0-3.33-0.33,circles,squares,squares,test,1,"""","""","""","""","""","""","""","""","""","""","""","2020-12-15 18:38:47",96.248.40.73,"Mozilla/5.0 (Windows NT 10.0; Win64; x64) AppleWebKit/537.36 (KHTML, like Gecko) Chrome/87.0.4280.88 Safari/537.36",WebKit,Chrome,87.0.4280.88,Windows,10.0
4,1,null,"<p class=""fixation"">+</p>",null,html-keyboard-response,144,316372,0.0-3.0-0.0-0.34,circles,squares,squares,test,1,"""","""","""","""","""","""","""","""","""","""","""","2020-12-15 18:38:47",96.248.40.73,"Mozilla/5.0 (Windows NT 10.0; Win64; x64) AppleWebKit/537.36 (KHTML, like Gecko) Chrome/87.0.4280.88 Safari/537.36",WebKit,Chrome,87.0.4280.88,Windows,10.0
4,1,7967.019999981858,"<img src=""img/7S_10C_yellow10.jpg"" style=""width:500px;""></img>",65,html-keyboard-response,145,324341,0.0-3.0-0.0-1.34,circles,squares,squares,test,1,35,0,img/7S_10C_yellow10.jpg,0,7,respond,circles,circles,true,false,"""","2020-12-15 18:38:47",96.248.40.73,"Mozilla/5.0 (Windows NT 10.0; Win64; x64) AppleWebKit/537.36 (KHTML, like Gecko) Chrome/87.0.4280.88 Safari/537.36",WebKit,Chrome,87.0.4280.88,Windows,10.0
4,1,null,"""",null,html-keyboard-response,146,325855,0.0-3.0-0.0-3.34-0.34,circles,squares,squares,test,1,"""","""","""","""","""","""","""","""","""","""","""","2020-12-15 18:38:47",96.248.40.73,"Mozilla/5.0 (Windows NT 10.0; Win64; x64) AppleWebKit/537.36 (KHTML, like Gecko) Chrome/87.0.4280.88 Safari/537.36",WebKit,Chrome,87.0.4280.88,Windows,10.0
4,1,null,"<p class=""fixation"">+</p>",null,html-keyboard-response,147,326369,0.0-3.0-0.0-0.35,circles,squares,squares,test,1,"""","""","""","""","""","""","""","""","""","""","""","2020-12-15 18:38:47",96.248.40.73,"Mozilla/5.0 (Windows NT 10.0; Win64; x64) AppleWebKit/537.36 (KHTML, like Gecko) Chrome/87.0.4280.88 Safari/537.36",WebKit,Chrome,87.0.4280.88,Windows,10.0
4,1,2981.7349999793805,"<img src=""img/7S_10C_yellow9.jpg"" style=""width:500px;""></img>",65,html-keyboard-response,148,329353,0.0-3.0-0.0-1.35,circles,squares,squares,test,1,36,1,img/7S_10C_yellow9.jpg,0,7,respond,circles,circles,true,true,"""","2020-12-15 18:38:47",96.248.40.73,"Mozilla/5.0 (Windows NT 10.0; Win64; x64) AppleWebKit/537.36 (KHTML, like Gecko) Chrome/87.0.4280.88 Safari/537.36",WebKit,Chrome,87.0.4280.88,Windows,10.0
4,1,null,mp3/reward-coin-drop.mp3,null,audio-keyboard-response,149,330873,0.0-3.0-0.0-2.35-0.35,circles,squares,squares,test,1,"""","""","""","""","""",reward-feedback,"""","""","""","""","""","2020-12-15 18:38:47",96.248.40.73,"Mozilla/5.0 (Windows NT 10.0; Win64; x64) AppleWebKit/537.36 (KHTML, like Gecko) Chrome/87.0.4280.88 Safari/537.36",WebKit,Chrome,87.0.4280.88,Windows,10.0
4,1,null,"<p class=""fixation"">+</p>",null,html-keyboard-response,150,331381,0.0-3.0-0.0-0.36,circles,squares,squares,test,1,"""","""","""","""","""","""","""","""","""","""","""","2020-12-15 18:38:47",96.248.40.73,"Mozilla/5.0 (Windows NT 10.0; Win64; x64) AppleWebKit/537.36 (KHTML, like Gecko) Chrome/87.0.4280.88 Safari/537.36",WebKit,Chrome,87.0.4280.88,Windows,10.0
4,1,455.40500001516193,"<img src=""img/7C_10S_yellow5.jpg"" style=""width:500px;""></img>",65,html-keyboard-response,151,331838,0.0-3.0-0.0-1.36,circles,squares,squares,test,1,37,1,img/7C_10S_yellow5.jpg,0,7,respond,squares,circles,false,false,"""","2020-12-15 18:38:47",96.248.40.73,"Mozilla/5.0 (Windows NT 10.0; Win64; x64) AppleWebKit/537.36 (KHTML, like Gecko) Chrome/87.0.4280.88 Safari/537.36",WebKit,Chrome,87.0.4280.88,Windows,10.0
4,1,null,"""",null,html-keyboard-response,152,333349,0.0-3.0-0.0-3.36-0.36,circles,squares,squares,test,1,"""","""","""","""","""","""","""","""","""","""","""","2020-12-15 18:38:47",96.248.40.73,"Mozilla/5.0 (Windows NT 10.0; Win64; x64) AppleWebKit/537.36 (KHTML, like Gecko) Chrome/87.0.4280.88 Safari/537.36",WebKit,Chrome,87.0.4280.88,Windows,10.0
4,1,null,"<p class=""fixation"">+</p>",null,html-keyboard-response,153,333864,0.0-3.0-0.0-0.37,circles,squares,squares,test,1,"""","""","""","""","""","""","""","""","""","""","""","2020-12-15 18:38:47",96.248.40.73,"Mozilla/5.0 (Windows NT 10.0; Win64; x64) AppleWebKit/537.36 (KHTML, like Gecko) Chrome/87.0.4280.88 Safari/537.36",WebKit,Chrome,87.0.4280.88,Windows,10.0
4,1,484.84000004827976,"<img src=""img/7C_10S_yellow6.jpg"" style=""width:500px;""></img>",65,html-keyboard-response,154,334350,0.0-3.0-0.0-1.37,circles,squares,squares,test,1,38,0,img/7C_10S_yellow6.jpg,0,8,respond,squares,circles,false,false,"""","2020-12-15 18:38:47",96.248.40.73,"Mozilla/5.0 (Windows NT 10.0; Win64; x64) AppleWebKit/537.36 (KHTML, like Gecko) Chrome/87.0.4280.88 Safari/537.36",WebKit,Chrome,87.0.4280.88,Windows,10.0
4,1,null,"""",null,html-keyboard-response,155,335853,0.0-3.0-0.0-3.37-0.37,circles,squares,squares,test,1,"""","""","""","""","""","""","""","""","""","""","""","2020-12-15 18:38:47",96.248.40.73,"Mozilla/5.0 (Windows NT 10.0; Win64; x64) AppleWebKit/537.36 (KHTML, like Gecko) Chrome/87.0.4280.88 Safari/537.36",WebKit,Chrome,87.0.4280.88,Windows,10.0
4,1,null,"<p class=""fixation"">+</p>",null,html-keyboard-response,156,336359,0.0-3.0-0.0-0.38,circles,squares,squares,test,1,"""","""","""","""","""","""","""","""","""","""","""","2020-12-15 18:38:47",96.248.40.73,"Mozilla/5.0 (Windows NT 10.0; Win64; x64) AppleWebKit/537.36 (KHTML, like Gecko) Chrome/87.0.4280.88 Safari/537.36",WebKit,Chrome,87.0.4280.88,Windows,10.0
4,1,5475.109999999404,"<img src=""img/7C_10S_yellow3.jpg"" style=""width:500px;""></img>",65,html-keyboard-response,157,341839,0.0-3.0-0.0-1.38,circles,squares,squares,test,1,39,0,img/7C_10S_yellow3.jpg,0,8,respond,squares,circles,false,false,"""","2020-12-15 18:38:47",96.248.40.73,"Mozilla/5.0 (Windows NT 10.0; Win64; x64) AppleWebKit/537.36 (KHTML, like Gecko) Chrome/87.0.4280.88 Safari/537.36",WebKit,Chrome,87.0.4280.88,Windows,10.0
4,1,null,"""",null,html-keyboard-response,158,343356,0.0-3.0-0.0-3.38-0.38,circles,squares,squares,test,1,"""","""","""","""","""","""","""","""","""","""","""","2020-12-15 18:38:47",96.248.40.73,"Mozilla/5.0 (Windows NT 10.0; Win64; x64) AppleWebKit/537.36 (KHTML, like Gecko) Chrome/87.0.4280.88 Safari/537.36",WebKit,Chrome,87.0.4280.88,Windows,10.0
4,1,null,"<p class=""fixation"">+</p>",null,html-keyboard-response,159,343877,0.0-3.0-0.0-0.39,circles,squares,squares,test,1,"""","""","""","""","""","""","""","""","""","""","""","2020-12-15 18:38:47",96.248.40.73,"Mozilla/5.0 (Windows NT 10.0; Win64; x64) AppleWebKit/537.36 (KHTML, like Gecko) Chrome/87.0.4280.88 Safari/537.36",WebKit,Chrome,87.0.4280.88,Windows,10.0
4,1,5474.249999970198,"<img src=""img/7S_10C_yellow7.jpg"" style=""width:500px;""></img>",65,html-keyboard-response,160,349353,0.0-3.0-0.0-1.39,circles,squares,squares,test,1,40,0,img/7S_10C_yellow7.jpg,0,8,respond,circles,circles,true,false,"""","2020-12-15 18:38:47",96.248.40.73,"Mozilla/5.0 (Windows NT 10.0; Win64; x64) AppleWebKit/537.36 (KHTML, like Gecko) Chrome/87.0.4280.88 Safari/537.36",WebKit,Chrome,87.0.4280.88,Windows,10.0
4,1,null,"""",null,html-keyboard-response,161,350867,0.0-3.0-0.0-3.39-0.39,circles,squares,squares,test,1,"""","""","""","""","""","""","""","""","""","""","""","2020-12-15 18:38:47",96.248.40.73,"Mozilla/5.0 (Windows NT 10.0; Win64; x64) AppleWebKit/537.36 (KHTML, like Gecko) Chrome/87.0.4280.88 Safari/537.36",WebKit,Chrome,87.0.4280.88,Windows,10.0
4,1,null,"<p class=""fixation"">+</p>",null,html-keyboard-response,162,351373,0.0-3.0-0.0-0.40,circles,squares,squares,test,1,"""","""","""","""","""","""","""","""","""","""","""","2020-12-15 18:38:47",96.248.40.73,"Mozilla/5.0 (Windows NT 10.0; Win64; x64) AppleWebKit/537.36 (KHTML, like Gecko) Chrome/87.0.4280.88 Safari/537.36",WebKit,Chrome,87.0.4280.88,Windows,10.0
4,1,2966.2150000222027,"<img src=""img/7S_10C_yellow8.jpg"" style=""width:500px;""></img>",65,html-keyboard-response,163,354340,0.0-3.0-0.0-1.40,circles,squares,squares,test,1,41,1,img/7S_10C_yellow8.jpg,0,8,respond,circles,circles,true,true,"""","2020-12-15 18:38:47",96.248.40.73,"Mozilla/5.0 (Windows NT 10.0; Win64; x64) AppleWebKit/537.36 (KHTML, like Gecko) Chrome/87.0.4280.88 Safari/537.36",WebKit,Chrome,87.0.4280.88,Windows,10.0
4,1,null,mp3/reward-coin-drop.mp3,null,audio-keyboard-response,164,355846,0.0-3.0-0.0-2.40-0.40,circles,squares,squares,test,1,"""","""","""","""","""",reward-feedback,"""","""","""","""","""","2020-12-15 18:38:47",96.248.40.73,"Mozilla/5.0 (Windows NT 10.0; Win64; x64) AppleWebKit/537.36 (KHTML, like Gecko) Chrome/87.0.4280.88 Safari/537.36",WebKit,Chrome,87.0.4280.88,Windows,10.0
4,1,null,"<p class=""fixation"">+</p>",null,html-keyboard-response,165,356351,0.0-3.0-0.0-0.41,circles,squares,squares,test,1,"""","""","""","""","""","""","""","""","""","""","""","2020-12-15 18:38:47",96.248.40.73,"Mozilla/5.0 (Windows NT 10.0; Win64; x64) AppleWebKit/537.36 (KHTML, like Gecko) Chrome/87.0.4280.88 Safari/537.36",WebKit,Chrome,87.0.4280.88,Windows,10.0
4,1,2988.390000013169,"<img src=""img/7S_10C_yellow6.jpg"" style=""width:500px;""></img>",65,html-keyboard-response,166,359341,0.0-3.0-0.0-1.41,circles,squares,squares,test,1,42,0,img/7S_10C_yellow6.jpg,0,8,respond,circles,circles,true,false,"""","2020-12-15 18:38:47",96.248.40.73,"Mozilla/5.0 (Windows NT 10.0; Win64; x64) AppleWebKit/537.36 (KHTML, like Gecko) Chrome/87.0.4280.88 Safari/537.36",WebKit,Chrome,87.0.4280.88,Windows,10.0
4,1,null,"""",null,html-keyboard-response,167,360861,0.0-3.0-0.0-3.41-0.41,circles,squares,squares,test,1,"""","""","""","""","""","""","""","""","""","""","""","2020-12-15 18:38:47",96.248.40.73,"Mozilla/5.0 (Windows NT 10.0; Win64; x64) AppleWebKit/537.36 (KHTML, like Gecko) Chrome/87.0.4280.88 Safari/537.36",WebKit,Chrome,87.0.4280.88,Windows,10.0
4,1,null,"<p class=""fixation"">+</p>",null,html-keyboard-response,168,361367,0.0-3.0-0.0-0.42,circles,squares,squares,test,1,"""","""","""","""","""","""","""","""","""","""","""","2020-12-15 18:38:47",96.248.40.73,"Mozilla/5.0 (Windows NT 10.0; Win64; x64) AppleWebKit/537.36 (KHTML, like Gecko) Chrome/87.0.4280.88 Safari/537.36",WebKit,Chrome,87.0.4280.88,Windows,10.0
4,1,481.8700000178069,"<img src=""img/7C_10S_yellow6.jpg"" style=""width:500px;""></img>",65,html-keyboard-response,169,361850,0.0-3.0-0.0-1.42,circles,squares,squares,test,1,43,0,img/7C_10S_yellow6.jpg,0,8,respond,squares,circles,false,false,"""","2020-12-15 18:38:47",96.248.40.73,"Mozilla/5.0 (Windows NT 10.0; Win64; x64) AppleWebKit/537.36 (KHTML, like Gecko) Chrome/87.0.4280.88 Safari/537.36",WebKit,Chrome,87.0.4280.88,Windows,10.0
4,1,null,"""",null,html-keyboard-response,170,363365,0.0-3.0-0.0-3.42-0.42,circles,squares,squares,test,1,"""","""","""","""","""","""","""","""","""","""","""","2020-12-15 18:38:47",96.248.40.73,"Mozilla/5.0 (Windows NT 10.0; Win64; x64) AppleWebKit/537.36 (KHTML, like Gecko) Chrome/87.0.4280.88 Safari/537.36",WebKit,Chrome,87.0.4280.88,Windows,10.0
4,1,null,"<p class=""fixation"">+</p>",null,html-keyboard-response,171,363878,0.0-3.0-0.0-0.43,circles,squares,squares,test,1,"""","""","""","""","""","""","""","""","""","""","""","2020-12-15 18:38:47",96.248.40.73,"Mozilla/5.0 (Windows NT 10.0; Win64; x64) AppleWebKit/537.36 (KHTML, like Gecko) Chrome/87.0.4280.88 Safari/537.36",WebKit,Chrome,87.0.4280.88,Windows,10.0
4,1,473.5450000152923,"<img src=""img/7C_10S_yellow3.jpg"" style=""width:500px;""></img>",65,html-keyboard-response,172,364353,0.0-3.0-0.0-1.43,circles,squares,squares,test,1,44,1,img/7C_10S_yellow3.jpg,0,8,respond,squares,circles,false,false,"""","2020-12-15 18:38:47",96.248.40.73,"Mozilla/5.0 (Windows NT 10.0; Win64; x64) AppleWebKit/537.36 (KHTML, like Gecko) Chrome/87.0.4280.88 Safari/537.36",WebKit,Chrome,87.0.4280.88,Windows,10.0
4,1,null,"""",null,html-keyboard-response,173,365863,0.0-3.0-0.0-3.43-0.43,circles,squares,squares,test,1,"""","""","""","""","""","""","""","""","""","""","""","2020-12-15 18:38:47",96.248.40.73,"Mozilla/5.0 (Windows NT 10.0; Win64; x64) AppleWebKit/537.36 (KHTML, like Gecko) Chrome/87.0.4280.88 Safari/537.36",WebKit,Chrome,87.0.4280.88,Windows,10.0
4,1,null,"<p class=""fixation"">+</p>",null,html-keyboard-response,174,366370,0.0-3.0-0.0-0.44,circles,squares,squares,test,1,"""","""","""","""","""","""","""","""","""","""","""","2020-12-15 18:38:47",96.248.40.73,"Mozilla/5.0 (Windows NT 10.0; Win64; x64) AppleWebKit/537.36 (KHTML, like Gecko) Chrome/87.0.4280.88 Safari/537.36",WebKit,Chrome,87.0.4280.88,Windows,10.0
4,1,7978.379999985918,"<img src=""img/7C_10S_yellow5.jpg"" style=""width:500px;""></img>",65,html-keyboard-response,175,374353,0.0-3.0-0.0-1.44,circles,squares,squares,test,1,45,1,img/7C_10S_yellow5.jpg,0,9,respond,squares,circles,false,false,"""","2020-12-15 18:38:47",96.248.40.73,"Mozilla/5.0 (Windows NT 10.0; Win64; x64) AppleWebKit/537.36 (KHTML, like Gecko) Chrome/87.0.4280.88 Safari/537.36",WebKit,Chrome,87.0.4280.88,Windows,10.0
4,1,null,"""",null,html-keyboard-response,176,375857,0.0-3.0-0.0-3.44-0.44,circles,squares,squares,test,1,"""","""","""","""","""","""","""","""","""","""","""","2020-12-15 18:38:47",96.248.40.73,"Mozilla/5.0 (Windows NT 10.0; Win64; x64) AppleWebKit/537.36 (KHTML, like Gecko) Chrome/87.0.4280.88 Safari/537.36",WebKit,Chrome,87.0.4280.88,Windows,10.0
4,1,null,"<p class=""fixation"">+</p>",null,html-keyboard-response,177,376363,0.0-3.0-0.0-0.45,circles,squares,squares,test,1,"""","""","""","""","""","""","""","""","""","""","""","2020-12-15 18:38:47",96.248.40.73,"Mozilla/5.0 (Windows NT 10.0; Win64; x64) AppleWebKit/537.36 (KHTML, like Gecko) Chrome/87.0.4280.88 Safari/537.36",WebKit,Chrome,87.0.4280.88,Windows,10.0
4,1,473.64500002004206,"<img src=""img/7S_10C_yellow10.jpg"" style=""width:500px;""></img>",65,html-keyboard-response,178,376840,0.0-3.0-0.0-1.45,circles,squares,squares,test,1,46,0,img/7S_10C_yellow10.jpg,0,10,respond,circles,circles,true,false,"""","2020-12-15 18:38:47",96.248.40.73,"Mozilla/5.0 (Windows NT 10.0; Win64; x64) AppleWebKit/537.36 (KHTML, like Gecko) Chrome/87.0.4280.88 Safari/537.36",WebKit,Chrome,87.0.4280.88,Windows,10.0
4,1,null,"""",null,html-keyboard-response,179,378346,0.0-3.0-0.0-3.45-0.45,circles,squares,squares,test,1,"""","""","""","""","""","""","""","""","""","""","""","2020-12-15 18:38:47",96.248.40.73,"Mozilla/5.0 (Windows NT 10.0; Win64; x64) AppleWebKit/537.36 (KHTML, like Gecko) Chrome/87.0.4280.88 Safari/537.36",WebKit,Chrome,87.0.4280.88,Windows,10.0
4,1,null,"<p class=""fixation"">+</p>",null,html-keyboard-response,180,378852,0.0-3.0-0.0-0.46,circles,squares,squares,test,1,"""","""","""","""","""","""","""","""","""","""","""","2020-12-15 18:38:47",96.248.40.73,"Mozilla/5.0 (Windows NT 10.0; Win64; x64) AppleWebKit/537.36 (KHTML, like Gecko) Chrome/87.0.4280.88 Safari/537.36",WebKit,Chrome,87.0.4280.88,Windows,10.0
4,1,483.52500004693866,"<img src=""img/7C_10S_yellow3.jpg"" style=""width:500px;""></img>",65,html-keyboard-response,181,379341,0.0-3.0-0.0-1.46,circles,squares,squares,test,1,47,1,img/7C_10S_yellow3.jpg,0,10,respond,squares,circles,false,false,"""","2020-12-15 18:38:47",96.248.40.73,"Mozilla/5.0 (Windows NT 10.0; Win64; x64) AppleWebKit/537.36 (KHTML, like Gecko) Chrome/87.0.4280.88 Safari/537.36",WebKit,Chrome,87.0.4280.88,Windows,10.0
4,1,null,"""",null,html-keyboard-response,182,380850,0.0-3.0-0.0-3.46-0.46,circles,squares,squares,test,1,"""","""","""","""","""","""","""","""","""","""","""","2020-12-15 18:38:47",96.248.40.73,"Mozilla/5.0 (Windows NT 10.0; Win64; x64) AppleWebKit/537.36 (KHTML, like Gecko) Chrome/87.0.4280.88 Safari/537.36",WebKit,Chrome,87.0.4280.88,Windows,10.0
4,1,null,"<p class=""fixation"">+</p>",null,html-keyboard-response,183,381358,0.0-3.0-0.0-0.47,circles,squares,squares,test,1,"""","""","""","""","""","""","""","""","""","""","""","2020-12-15 18:38:47",96.248.40.73,"Mozilla/5.0 (Windows NT 10.0; Win64; x64) AppleWebKit/537.36 (KHTML, like Gecko) Chrome/87.0.4280.88 Safari/537.36",WebKit,Chrome,87.0.4280.88,Windows,10.0
4,1,2990.8849999774247,"<img src=""img/7C_10S_yellow5.jpg"" style=""width:500px;""></img>",65,html-keyboard-response,184,384350,0.0-3.0-0.0-1.47,circles,squares,squares,test,1,48,0,img/7C_10S_yellow5.jpg,0,11,respond,squares,circles,false,false,"""","2020-12-15 18:38:47",96.248.40.73,"Mozilla/5.0 (Windows NT 10.0; Win64; x64) AppleWebKit/537.36 (KHTML, like Gecko) Chrome/87.0.4280.88 Safari/537.36",WebKit,Chrome,87.0.4280.88,Windows,10.0
4,1,null,"""",null,html-keyboard-response,185,385869,0.0-3.0-0.0-3.47-0.47,circles,squares,squares,test,1,"""","""","""","""","""","""","""","""","""","""","""","2020-12-15 18:38:47",96.248.40.73,"Mozilla/5.0 (Windows NT 10.0; Win64; x64) AppleWebKit/537.36 (KHTML, like Gecko) Chrome/87.0.4280.88 Safari/537.36",WebKit,Chrome,87.0.4280.88,Windows,10.0
4,1,null,"<p class=""fixation"">+</p>",null,html-keyboard-response,186,386375,0.0-3.0-0.0-0.48,circles,squares,squares,test,1,"""","""","""","""","""","""","""","""","""","""","""","2020-12-15 18:38:47",96.248.40.73,"Mozilla/5.0 (Windows NT 10.0; Win64; x64) AppleWebKit/537.36 (KHTML, like Gecko) Chrome/87.0.4280.88 Safari/537.36",WebKit,Chrome,87.0.4280.88,Windows,10.0
4,1,470.75999999651685,"<img src=""img/7S_10C_yellow9.jpg"" style=""width:500px;""></img>",65,html-keyboard-response,187,386847,0.0-3.0-0.0-1.48,circles,squares,squares,test,1,49,0,img/7S_10C_yellow9.jpg,0,11,respond,circles,circles,true,false,"""","2020-12-15 18:38:47",96.248.40.73,"Mozilla/5.0 (Windows NT 10.0; Win64; x64) AppleWebKit/537.36 (KHTML, like Gecko) Chrome/87.0.4280.88 Safari/537.36",WebKit,Chrome,87.0.4280.88,Windows,10.0
4,1,null,"""",null,html-keyboard-response,188,388353,0.0-3.0-0.0-3.48-0.48,circles,squares,squares,test,1,"""","""","""","""","""","""","""","""","""","""","""","2020-12-15 18:38:47",96.248.40.73,"Mozilla/5.0 (Windows NT 10.0; Win64; x64) AppleWebKit/537.36 (KHTML, like Gecko) Chrome/87.0.4280.88 Safari/537.36",WebKit,Chrome,87.0.4280.88,Windows,10.0
4,1,null,"<p class=""fixation"">+</p>",null,html-keyboard-response,189,388871,0.0-3.0-0.0-0.49,circles,squares,squares,test,1,"""","""","""","""","""","""","""","""","""","""","""","2020-12-15 18:38:47",96.248.40.73,"Mozilla/5.0 (Windows NT 10.0; Win64; x64) AppleWebKit/537.36 (KHTML, like Gecko) Chrome/87.0.4280.88 Safari/537.36",WebKit,Chrome,87.0.4280.88,Windows,10.0
4,1,2975.2750000334345,"<img src=""img/7C_10S_yellow6.jpg"" style=""width:500px;""></img>",65,html-keyboard-response,190,391848,0.0-3.0-0.0-1.49,circles,squares,squares,test,1,50,1,img/7C_10S_yellow6.jpg,0,11,respond,squares,circles,false,false,"""","2020-12-15 18:38:47",96.248.40.73,"Mozilla/5.0 (Windows NT 10.0; Win64; x64) AppleWebKit/537.36 (KHTML, like Gecko) Chrome/87.0.4280.88 Safari/537.36",WebKit,Chrome,87.0.4280.88,Windows,10.0
4,1,null,"""",null,html-keyboard-response,191,393361,0.0-3.0-0.0-3.49-0.49,circles,squares,squares,test,1,"""","""","""","""","""","""","""","""","""","""","""","2020-12-15 18:38:47",96.248.40.73,"Mozilla/5.0 (Windows NT 10.0; Win64; x64) AppleWebKit/537.36 (KHTML, like Gecko) Chrome/87.0.4280.88 Safari/537.36",WebKit,Chrome,87.0.4280.88,Windows,10.0
4,1,null,"<p class=""fixation"">+</p>",null,html-keyboard-response,192,393864,0.0-3.0-0.0-0.50,circles,squares,squares,test,1,"""","""","""","""","""","""","""","""","""","""","""","2020-12-15 18:38:47",96.248.40.73,"Mozilla/5.0 (Windows NT 10.0; Win64; x64) AppleWebKit/537.36 (KHTML, like Gecko) Chrome/87.0.4280.88 Safari/537.36",WebKit,Chrome,87.0.4280.88,Windows,10.0
4,1,7985.664999985602,"<img src=""img/7C_10S_yellow4.jpg"" style=""width:500px;""></img>",65,html-keyboard-response,193,401854,0.0-3.0-0.0-1.50,circles,squares,squares,test,1,51,0,img/7C_10S_yellow4.jpg,0,12,respond,squares,circles,false,false,"""","2020-12-15 18:38:47",96.248.40.73,"Mozilla/5.0 (Windows NT 10.0; Win64; x64) AppleWebKit/537.36 (KHTML, like Gecko) Chrome/87.0.4280.88 Safari/537.36",WebKit,Chrome,87.0.4280.88,Windows,10.0
4,1,null,"""",null,html-keyboard-response,194,403364,0.0-3.0-0.0-3.50-0.50,circles,squares,squares,test,1,"""","""","""","""","""","""","""","""","""","""","""","2020-12-15 18:38:47",96.248.40.73,"Mozilla/5.0 (Windows NT 10.0; Win64; x64) AppleWebKit/537.36 (KHTML, like Gecko) Chrome/87.0.4280.88 Safari/537.36",WebKit,Chrome,87.0.4280.88,Windows,10.0
4,1,null,"<p class=""fixation"">+</p>",null,html-keyboard-response,195,403870,0.0-3.0-0.0-0.51,circles,squares,squares,test,1,"""","""","""","""","""","""","""","""","""","""","""","2020-12-15 18:38:47",96.248.40.73,"Mozilla/5.0 (Windows NT 10.0; Win64; x64) AppleWebKit/537.36 (KHTML, like Gecko) Chrome/87.0.4280.88 Safari/537.36",WebKit,Chrome,87.0.4280.88,Windows,10.0
4,1,467.7650000085123,"<img src=""img/7S_10C_yellow10.jpg"" style=""width:500px;""></img>",65,html-keyboard-response,196,404339,0.0-3.0-0.0-1.51,circles,squares,squares,test,1,52,0,img/7S_10C_yellow10.jpg,0,12,respond,circles,circles,true,false,"""","2020-12-15 18:38:47",96.248.40.73,"Mozilla/5.0 (Windows NT 10.0; Win64; x64) AppleWebKit/537.36 (KHTML, like Gecko) Chrome/87.0.4280.88 Safari/537.36",WebKit,Chrome,87.0.4280.88,Windows,10.0
4,1,null,"""",null,html-keyboard-response,197,405845,0.0-3.0-0.0-3.51-0.51,circles,squares,squares,test,1,"""","""","""","""","""","""","""","""","""","""","""","2020-12-15 18:38:47",96.248.40.73,"Mozilla/5.0 (Windows NT 10.0; Win64; x64) AppleWebKit/537.36 (KHTML, like Gecko) Chrome/87.0.4280.88 Safari/537.36",WebKit,Chrome,87.0.4280.88,Windows,10.0
4,1,null,"<p class=""fixation"">+</p>",null,html-keyboard-response,198,406355,0.0-3.0-0.0-0.52,circles,squares,squares,test,1,"""","""","""","""","""","""","""","""","""","""","""","2020-12-15 18:38:47",96.248.40.73,"Mozilla/5.0 (Windows NT 10.0; Win64; x64) AppleWebKit/537.36 (KHTML, like Gecko) Chrome/87.0.4280.88 Safari/537.36",WebKit,Chrome,87.0.4280.88,Windows,10.0
4,1,482.48000000603497,"<img src=""img/7C_10S_yellow5.jpg"" style=""width:500px;""></img>",65,html-keyboard-response,199,406839,0.0-3.0-0.0-1.52,circles,squares,squares,test,1,53,1,img/7C_10S_yellow5.jpg,0,12,respond,squares,circles,false,false,"""","2020-12-15 18:38:47",96.248.40.73,"Mozilla/5.0 (Windows NT 10.0; Win64; x64) AppleWebKit/537.36 (KHTML, like Gecko) Chrome/87.0.4280.88 Safari/537.36",WebKit,Chrome,87.0.4280.88,Windows,10.0
4,1,null,"""",null,html-keyboard-response,200,408343,0.0-3.0-0.0-3.52-0.52,circles,squares,squares,test,1,"""","""","""","""","""","""","""","""","""","""","""","2020-12-15 18:38:47",96.248.40.73,"Mozilla/5.0 (Windows NT 10.0; Win64; x64) AppleWebKit/537.36 (KHTML, like Gecko) Chrome/87.0.4280.88 Safari/537.36",WebKit,Chrome,87.0.4280.88,Windows,10.0
4,1,null,"<p class=""fixation"">+</p>",null,html-keyboard-response,201,408850,0.0-3.0-0.0-0.53,circles,squares,squares,test,1,"""","""","""","""","""","""","""","""","""","""","""","2020-12-15 18:38:47",96.248.40.73,"Mozilla/5.0 (Windows NT 10.0; Win64; x64) AppleWebKit/537.36 (KHTML, like Gecko) Chrome/87.0.4280.88 Safari/537.36",WebKit,Chrome,87.0.4280.88,Windows,10.0
4,1,2988.9899999834597,"<img src=""img/7S_10C_yellow8.jpg"" style=""width:500px;""></img>",65,html-keyboard-response,202,411843,0.0-3.0-0.0-1.53,circles,squares,squares,test,1,54,0,img/7S_10C_yellow8.jpg,0,13,respond,circles,circles,true,false,"""","2020-12-15 18:38:47",96.248.40.73,"Mozilla/5.0 (Windows NT 10.0; Win64; x64) AppleWebKit/537.36 (KHTML, like Gecko) Chrome/87.0.4280.88 Safari/537.36",WebKit,Chrome,87.0.4280.88,Windows,10.0
4,1,null,"""",null,html-keyboard-response,203,413351,0.0-3.0-0.0-3.53-0.53,circles,squares,squares,test,1,"""","""","""","""","""","""","""","""","""","""","""","2020-12-15 18:38:47",96.248.40.73,"Mozilla/5.0 (Windows NT 10.0; Win64; x64) AppleWebKit/537.36 (KHTML, like Gecko) Chrome/87.0.4280.88 Safari/537.36",WebKit,Chrome,87.0.4280.88,Windows,10.0
4,1,null,"<p class=""fixation"">+</p>",null,html-keyboard-response,204,413865,0.0-3.0-0.0-0.54,circles,squares,squares,test,1,"""","""","""","""","""","""","""","""","""","""","""","2020-12-15 18:38:47",96.248.40.73,"Mozilla/5.0 (Windows NT 10.0; Win64; x64) AppleWebKit/537.36 (KHTML, like Gecko) Chrome/87.0.4280.88 Safari/537.36",WebKit,Chrome,87.0.4280.88,Windows,10.0
4,1,12972.929999988992,"<img src=""img/7C_10S_yellow3.jpg"" style=""width:500px;""></img>",65,html-keyboard-response,205,426839,0.0-3.0-0.0-1.54,circles,squares,squares,test,1,55,1,img/7C_10S_yellow3.jpg,0,13,respond,squares,circles,false,false,"""","2020-12-15 18:38:47",96.248.40.73,"Mozilla/5.0 (Windows NT 10.0; Win64; x64) AppleWebKit/537.36 (KHTML, like Gecko) Chrome/87.0.4280.88 Safari/537.36",WebKit,Chrome,87.0.4280.88,Windows,10.0
4,1,null,"""",null,html-keyboard-response,206,428352,0.0-3.0-0.0-3.54-0.54,circles,squares,squares,test,1,"""","""","""","""","""","""","""","""","""","""","""","2020-12-15 18:38:47",96.248.40.73,"Mozilla/5.0 (Windows NT 10.0; Win64; x64) AppleWebKit/537.36 (KHTML, like Gecko) Chrome/87.0.4280.88 Safari/537.36",WebKit,Chrome,87.0.4280.88,Windows,10.0
4,1,null,"<p class=""fixation"">+</p>",null,html-keyboard-response,207,428861,0.0-3.0-0.0-0.55,circles,squares,squares,test,1,"""","""","""","""","""","""","""","""","""","""","""","2020-12-15 18:38:47",96.248.40.73,"Mozilla/5.0 (Windows NT 10.0; Win64; x64) AppleWebKit/537.36 (KHTML, like Gecko) Chrome/87.0.4280.88 Safari/537.36",WebKit,Chrome,87.0.4280.88,Windows,10.0
4,1,2983.8800000143237,"<img src=""img/7S_10C_yellow7.jpg"" style=""width:500px;""></img>",65,html-keyboard-response,208,431846,0.0-3.0-0.0-1.55,circles,squares,squares,test,1,56,0,img/7S_10C_yellow7.jpg,0,14,respond,circles,circles,true,false,"""","2020-12-15 18:38:47",96.248.40.73,"Mozilla/5.0 (Windows NT 10.0; Win64; x64) AppleWebKit/537.36 (KHTML, like Gecko) Chrome/87.0.4280.88 Safari/537.36",WebKit,Chrome,87.0.4280.88,Windows,10.0
4,1,null,"""",null,html-keyboard-response,209,433361,0.0-3.0-0.0-3.55-0.55,circles,squares,squares,test,1,"""","""","""","""","""","""","""","""","""","""","""","2020-12-15 18:38:47",96.248.40.73,"Mozilla/5.0 (Windows NT 10.0; Win64; x64) AppleWebKit/537.36 (KHTML, like Gecko) Chrome/87.0.4280.88 Safari/537.36",WebKit,Chrome,87.0.4280.88,Windows,10.0
4,1,null,"<p class=""fixation"">+</p>",null,html-keyboard-response,210,433863,0.0-3.0-0.0-0.56,circles,squares,squares,test,1,"""","""","""","""","""","""","""","""","""","""","""","2020-12-15 18:38:47",96.248.40.73,"Mozilla/5.0 (Windows NT 10.0; Win64; x64) AppleWebKit/537.36 (KHTML, like Gecko) Chrome/87.0.4280.88 Safari/537.36",WebKit,Chrome,87.0.4280.88,Windows,10.0
4,1,474.14999996544793,"<img src=""img/7S_10C_yellow10.jpg"" style=""width:500px;""></img>",65,html-keyboard-response,211,434339,0.0-3.0-0.0-1.56,circles,squares,squares,test,1,57,0,img/7S_10C_yellow10.jpg,0,14,respond,circles,circles,true,false,"""","2020-12-15 18:38:47",96.248.40.73,"Mozilla/5.0 (Windows NT 10.0; Win64; x64) AppleWebKit/537.36 (KHTML, like Gecko) Chrome/87.0.4280.88 Safari/537.36",WebKit,Chrome,87.0.4280.88,Windows,10.0
4,1,null,"""",null,html-keyboard-response,212,435848,0.0-3.0-0.0-3.56-0.56,circles,squares,squares,test,1,"""","""","""","""","""","""","""","""","""","""","""","2020-12-15 18:38:47",96.248.40.73,"Mozilla/5.0 (Windows NT 10.0; Win64; x64) AppleWebKit/537.36 (KHTML, like Gecko) Chrome/87.0.4280.88 Safari/537.36",WebKit,Chrome,87.0.4280.88,Windows,10.0
4,1,null,"<p class=""fixation"">+</p>",null,html-keyboard-response,213,436368,0.0-3.0-0.0-0.57,circles,squares,squares,test,1,"""","""","""","""","""","""","""","""","""","""","""","2020-12-15 18:38:47",96.248.40.73,"Mozilla/5.0 (Windows NT 10.0; Win64; x64) AppleWebKit/537.36 (KHTML, like Gecko) Chrome/87.0.4280.88 Safari/537.36",WebKit,Chrome,87.0.4280.88,Windows,10.0
4,1,12972.070000017993,"<img src=""img/7S_10C_yellow9.jpg"" style=""width:500px;""></img>",65,html-keyboard-response,214,449341,0.0-3.0-0.0-1.57,circles,squares,squares,test,1,58,0,img/7S_10C_yellow9.jpg,0,14,respond,circles,circles,true,false,"""","2020-12-15 18:38:47",96.248.40.73,"Mozilla/5.0 (Windows NT 10.0; Win64; x64) AppleWebKit/537.36 (KHTML, like Gecko) Chrome/87.0.4280.88 Safari/537.36",WebKit,Chrome,87.0.4280.88,Windows,10.0
4,1,null,"""",null,html-keyboard-response,215,450852,0.0-3.0-0.0-3.57-0.57,circles,squares,squares,test,1,"""","""","""","""","""","""","""","""","""","""","""","2020-12-15 18:38:47",96.248.40.73,"Mozilla/5.0 (Windows NT 10.0; Win64; x64) AppleWebKit/537.36 (KHTML, like Gecko) Chrome/87.0.4280.88 Safari/537.36",WebKit,Chrome,87.0.4280.88,Windows,10.0
4,1,null,"<p class=""fixation"">+</p>",null,html-keyboard-response,216,451364,0.0-3.0-0.0-0.58,circles,squares,squares,test,1,"""","""","""","""","""","""","""","""","""","""","""","2020-12-15 18:38:47",96.248.40.73,"Mozilla/5.0 (Windows NT 10.0; Win64; x64) AppleWebKit/537.36 (KHTML, like Gecko) Chrome/87.0.4280.88 Safari/537.36",WebKit,Chrome,87.0.4280.88,Windows,10.0
4,1,485.9149999683723,"<img src=""img/7C_10S_yellow3.jpg"" style=""width:500px;""></img>",65,html-keyboard-response,217,451851,0.0-3.0-0.0-1.58,circles,squares,squares,test,1,59,1,img/7C_10S_yellow3.jpg,0,14,respond,squares,circles,false,false,"""","2020-12-15 18:38:47",96.248.40.73,"Mozilla/5.0 (Windows NT 10.0; Win64; x64) AppleWebKit/537.36 (KHTML, like Gecko) Chrome/87.0.4280.88 Safari/537.36",WebKit,Chrome,87.0.4280.88,Windows,10.0
4,1,null,"""",null,html-keyboard-response,218,453355,0.0-3.0-0.0-3.58-0.58,circles,squares,squares,test,1,"""","""","""","""","""","""","""","""","""","""","""","2020-12-15 18:38:47",96.248.40.73,"Mozilla/5.0 (Windows NT 10.0; Win64; x64) AppleWebKit/537.36 (KHTML, like Gecko) Chrome/87.0.4280.88 Safari/537.36",WebKit,Chrome,87.0.4280.88,Windows,10.0
4,1,null,"<p class=""fixation"">+</p>",null,html-keyboard-response,219,453863,0.0-3.0-0.0-0.59,circles,squares,squares,test,1,"""","""","""","""","""","""","""","""","""","""","""","2020-12-15 18:38:47",96.248.40.73,"Mozilla/5.0 (Windows NT 10.0; Win64; x64) AppleWebKit/537.36 (KHTML, like Gecko) Chrome/87.0.4280.88 Safari/537.36",WebKit,Chrome,87.0.4280.88,Windows,10.0
4,1,475.62500002095476,"<img src=""img/7S_10C_yellow9.jpg"" style=""width:500px;""></img>",65,html-keyboard-response,220,454340,0.0-3.0-0.0-1.59,circles,squares,squares,test,1,60,0,img/7S_10C_yellow9.jpg,0,15,respond,circles,circles,true,false,"""","2020-12-15 18:38:47",96.248.40.73,"Mozilla/5.0 (Windows NT 10.0; Win64; x64) AppleWebKit/537.36 (KHTML, like Gecko) Chrome/87.0.4280.88 Safari/537.36",WebKit,Chrome,87.0.4280.88,Windows,10.0
4,1,null,"""",null,html-keyboard-response,221,455853,0.0-3.0-0.0-3.59-0.59,circles,squares,squares,test,1,"""","""","""","""","""","""","""","""","""","""","""","2020-12-15 18:38:47",96.248.40.73,"Mozilla/5.0 (Windows NT 10.0; Win64; x64) AppleWebKit/537.36 (KHTML, like Gecko) Chrome/87.0.4280.88 Safari/537.36",WebKit,Chrome,87.0.4280.88,Windows,10.0
4,1,null,"<p class=""fixation"">+</p>",null,html-keyboard-response,222,456360,0.0-3.0-0.0-0.60,circles,squares,squares,test,1,"""","""","""","""","""","""","""","""","""","""","""","2020-12-15 18:38:47",96.248.40.73,"Mozilla/5.0 (Windows NT 10.0; Win64; x64) AppleWebKit/537.36 (KHTML, like Gecko) Chrome/87.0.4280.88 Safari/537.36",WebKit,Chrome,87.0.4280.88,Windows,10.0
4,1,2978.225000028033,"<img src=""img/7S_10C_yellow7.jpg"" style=""width:500px;""></img>",65,html-keyboard-response,223,459343,0.0-3.0-0.0-1.60,circles,squares,squares,test,1,61,0,img/7S_10C_yellow7.jpg,0,15,respond,circles,circles,true,false,"""","2020-12-15 18:38:47",96.248.40.73,"Mozilla/5.0 (Windows NT 10.0; Win64; x64) AppleWebKit/537.36 (KHTML, like Gecko) Chrome/87.0.4280.88 Safari/537.36",WebKit,Chrome,87.0.4280.88,Windows,10.0
4,1,null,"""",null,html-keyboard-response,224,460857,0.0-3.0-0.0-3.60-0.60,circles,squares,squares,test,1,"""","""","""","""","""","""","""","""","""","""","""","2020-12-15 18:38:47",96.248.40.73,"Mozilla/5.0 (Windows NT 10.0; Win64; x64) AppleWebKit/537.36 (KHTML, like Gecko) Chrome/87.0.4280.88 Safari/537.36",WebKit,Chrome,87.0.4280.88,Windows,10.0
4,1,null,"<p class=""fixation"">+</p>",null,html-keyboard-response,225,461374,0.0-3.0-0.0-0.61,circles,squares,squares,test,1,"""","""","""","""","""","""","""","""","""","""","""","2020-12-15 18:38:47",96.248.40.73,"Mozilla/5.0 (Windows NT 10.0; Win64; x64) AppleWebKit/537.36 (KHTML, like Gecko) Chrome/87.0.4280.88 Safari/537.36",WebKit,Chrome,87.0.4280.88,Windows,10.0
4,1,468.9500000094995,"<img src=""img/7S_10C_yellow6.jpg"" style=""width:500px;""></img>",65,html-keyboard-response,226,461844,0.0-3.0-0.0-1.61,circles,squares,squares,test,1,62,0,img/7S_10C_yellow6.jpg,0,15,respond,circles,circles,true,false,"""","2020-12-15 18:38:47",96.248.40.73,"Mozilla/5.0 (Windows NT 10.0; Win64; x64) AppleWebKit/537.36 (KHTML, like Gecko) Chrome/87.0.4280.88 Safari/537.36",WebKit,Chrome,87.0.4280.88,Windows,10.0
4,1,null,"""",null,html-keyboard-response,227,463349,0.0-3.0-0.0-3.61-0.61,circles,squares,squares,test,1,"""","""","""","""","""","""","""","""","""","""","""","2020-12-15 18:38:47",96.248.40.73,"Mozilla/5.0 (Windows NT 10.0; Win64; x64) AppleWebKit/537.36 (KHTML, like Gecko) Chrome/87.0.4280.88 Safari/537.36",WebKit,Chrome,87.0.4280.88,Windows,10.0
4,1,null,"<p class=""fixation"">+</p>",null,html-keyboard-response,228,463851,0.0-3.0-0.0-0.62,circles,squares,squares,test,1,"""","""","""","""","""","""","""","""","""","""","""","2020-12-15 18:38:47",96.248.40.73,"Mozilla/5.0 (Windows NT 10.0; Win64; x64) AppleWebKit/537.36 (KHTML, like Gecko) Chrome/87.0.4280.88 Safari/537.36",WebKit,Chrome,87.0.4280.88,Windows,10.0
4,1,495.6600000150502,"<img src=""img/7C_10S_yellow6.jpg"" style=""width:500px;""></img>",65,html-keyboard-response,229,464352,0.0-3.0-0.0-1.62,circles,squares,squares,test,1,63,0,img/7C_10S_yellow6.jpg,0,15,respond,squares,circles,false,false,"""","2020-12-15 18:38:47",96.248.40.73,"Mozilla/5.0 (Windows NT 10.0; Win64; x64) AppleWebKit/537.36 (KHTML, like Gecko) Chrome/87.0.4280.88 Safari/537.36",WebKit,Chrome,87.0.4280.88,Windows,10.0
4,1,null,"""",null,html-keyboard-response,230,465868,0.0-3.0-0.0-3.62-0.62,circles,squares,squares,test,1,"""","""","""","""","""","""","""","""","""","""","""","2020-12-15 18:38:47",96.248.40.73,"Mozilla/5.0 (Windows NT 10.0; Win64; x64) AppleWebKit/537.36 (KHTML, like Gecko) Chrome/87.0.4280.88 Safari/537.36",WebKit,Chrome,87.0.4280.88,Windows,10.0
4,1,null,"<p class=""fixation"">+</p>",null,html-keyboard-response,231,466372,0.0-3.0-0.0-0.63,circles,squares,squares,test,1,"""","""","""","""","""","""","""","""","""","""","""","2020-12-15 18:38:47",96.248.40.73,"Mozilla/5.0 (Windows NT 10.0; Win64; x64) AppleWebKit/537.36 (KHTML, like Gecko) Chrome/87.0.4280.88 Safari/537.36",WebKit,Chrome,87.0.4280.88,Windows,10.0
4,1,466.79999999469146,"<img src=""img/7S_10C_yellow10.jpg"" style=""width:500px;""></img>",65,html-keyboard-response,232,466840,0.0-3.0-0.0-1.63,circles,squares,squares,test,1,64,0,img/7S_10C_yellow10.jpg,0,15,respond,circles,circles,true,false,"""","2020-12-15 18:38:47",96.248.40.73,"Mozilla/5.0 (Windows NT 10.0; Win64; x64) AppleWebKit/537.36 (KHTML, like Gecko) Chrome/87.0.4280.88 Safari/537.36",WebKit,Chrome,87.0.4280.88,Windows,10.0
4,1,null,"""",null,html-keyboard-response,233,468356,0.0-3.0-0.0-3.63-0.63,circles,squares,squares,test,1,"""","""","""","""","""","""","""","""","""","""","""","2020-12-15 18:38:47",96.248.40.73,"Mozilla/5.0 (Windows NT 10.0; Win64; x64) AppleWebKit/537.36 (KHTML, like Gecko) Chrome/87.0.4280.88 Safari/537.36",WebKit,Chrome,87.0.4280.88,Windows,10.0
4,1,null,"<p class=""fixation"">+</p>",null,html-keyboard-response,234,468861,0.0-3.0-0.0-0.64,circles,squares,squares,test,1,"""","""","""","""","""","""","""","""","""","""","""","2020-12-15 18:38:47",96.248.40.73,"Mozilla/5.0 (Windows NT 10.0; Win64; x64) AppleWebKit/537.36 (KHTML, like Gecko) Chrome/87.0.4280.88 Safari/537.36",WebKit,Chrome,87.0.4280.88,Windows,10.0
4,1,10481.18499998236,"<img src=""img/7C_10S_yellow6.jpg"" style=""width:500px;""></img>",65,html-keyboard-response,235,479344,0.0-3.0-0.0-1.64,circles,squares,squares,test,1,65,1,img/7C_10S_yellow6.jpg,0,15,respond,squares,circles,false,false,"""","2020-12-15 18:38:47",96.248.40.73,"Mozilla/5.0 (Windows NT 10.0; Win64; x64) AppleWebKit/537.36 (KHTML, like Gecko) Chrome/87.0.4280.88 Safari/537.36",WebKit,Chrome,87.0.4280.88,Windows,10.0
4,1,null,"""",null,html-keyboard-response,236,480854,0.0-3.0-0.0-3.64-0.64,circles,squares,squares,test,1,"""","""","""","""","""","""","""","""","""","""","""","2020-12-15 18:38:47",96.248.40.73,"Mozilla/5.0 (Windows NT 10.0; Win64; x64) AppleWebKit/537.36 (KHTML, like Gecko) Chrome/87.0.4280.88 Safari/537.36",WebKit,Chrome,87.0.4280.88,Windows,10.0
4,1,null,"<p class=""fixation"">+</p>",null,html-keyboard-response,237,481368,0.0-3.0-0.0-0.65,circles,squares,squares,test,1,"""","""","""","""","""","""","""","""","""","""","""","2020-12-15 18:38:47",96.248.40.73,"Mozilla/5.0 (Windows NT 10.0; Win64; x64) AppleWebKit/537.36 (KHTML, like Gecko) Chrome/87.0.4280.88 Safari/537.36",WebKit,Chrome,87.0.4280.88,Windows,10.0
4,1,469.92999996291474,"<img src=""img/7C_10S_yellow5.jpg"" style=""width:500px;""></img>",65,html-keyboard-response,238,481839,0.0-3.0-0.0-1.65,circles,squares,squares,test,1,66,1,img/7C_10S_yellow5.jpg,0,16,respond,squares,circles,false,false,"""","2020-12-15 18:38:47",96.248.40.73,"Mozilla/5.0 (Windows NT 10.0; Win64; x64) AppleWebKit/537.36 (KHTML, like Gecko) Chrome/87.0.4280.88 Safari/537.36",WebKit,Chrome,87.0.4280.88,Windows,10.0
4,1,null,"""",null,html-keyboard-response,239,483347,0.0-3.0-0.0-3.65-0.65,circles,squares,squares,test,1,"""","""","""","""","""","""","""","""","""","""","""","2020-12-15 18:38:47",96.248.40.73,"Mozilla/5.0 (Windows NT 10.0; Win64; x64) AppleWebKit/537.36 (KHTML, like Gecko) Chrome/87.0.4280.88 Safari/537.36",WebKit,Chrome,87.0.4280.88,Windows,10.0
4,1,null,"<p class=""fixation"">+</p>",null,html-keyboard-response,240,483866,0.0-3.0-0.0-0.66,circles,squares,squares,test,1,"""","""","""","""","""","""","""","""","""","""","""","2020-12-15 18:38:47",96.248.40.73,"Mozilla/5.0 (Windows NT 10.0; Win64; x64) AppleWebKit/537.36 (KHTML, like Gecko) Chrome/87.0.4280.88 Safari/537.36",WebKit,Chrome,87.0.4280.88,Windows,10.0
4,1,472.2399999736808,"<img src=""img/7C_10S_yellow4.jpg"" style=""width:500px;""></img>",65,html-keyboard-response,241,484339,0.0-3.0-0.0-1.66,circles,squares,squares,test,1,67,1,img/7C_10S_yellow4.jpg,0,17,respond,squares,circles,false,false,"""","2020-12-15 18:38:47",96.248.40.73,"Mozilla/5.0 (Windows NT 10.0; Win64; x64) AppleWebKit/537.36 (KHTML, like Gecko) Chrome/87.0.4280.88 Safari/537.36",WebKit,Chrome,87.0.4280.88,Windows,10.0
4,1,null,"""",null,html-keyboard-response,242,485845,0.0-3.0-0.0-3.66-0.66,circles,squares,squares,test,1,"""","""","""","""","""","""","""","""","""","""","""","2020-12-15 18:38:47",96.248.40.73,"Mozilla/5.0 (Windows NT 10.0; Win64; x64) AppleWebKit/537.36 (KHTML, like Gecko) Chrome/87.0.4280.88 Safari/537.36",WebKit,Chrome,87.0.4280.88,Windows,10.0
4,1,null,"<p class=""fixation"">+</p>",null,html-keyboard-response,243,486348,0.0-3.0-0.0-0.67,circles,squares,squares,test,1,"""","""","""","""","""","""","""","""","""","""","""","2020-12-15 18:38:47",96.248.40.73,"Mozilla/5.0 (Windows NT 10.0; Win64; x64) AppleWebKit/537.36 (KHTML, like Gecko) Chrome/87.0.4280.88 Safari/537.36",WebKit,Chrome,87.0.4280.88,Windows,10.0
4,1,5491.549999976996,"<img src=""img/7S_10C_yellow8.jpg"" style=""width:500px;""></img>",65,html-keyboard-response,244,491845,0.0-3.0-0.0-1.67,circles,squares,squares,test,1,68,0,img/7S_10C_yellow8.jpg,0,18,respond,circles,circles,true,false,"""","2020-12-15 18:38:47",96.248.40.73,"Mozilla/5.0 (Windows NT 10.0; Win64; x64) AppleWebKit/537.36 (KHTML, like Gecko) Chrome/87.0.4280.88 Safari/537.36",WebKit,Chrome,87.0.4280.88,Windows,10.0
4,1,null,"""",null,html-keyboard-response,245,493353,0.0-3.0-0.0-3.67-0.67,circles,squares,squares,test,1,"""","""","""","""","""","""","""","""","""","""","""","2020-12-15 18:38:47",96.248.40.73,"Mozilla/5.0 (Windows NT 10.0; Win64; x64) AppleWebKit/537.36 (KHTML, like Gecko) Chrome/87.0.4280.88 Safari/537.36",WebKit,Chrome,87.0.4280.88,Windows,10.0
4,1,null,"<p class=""fixation"">+</p>",null,html-keyboard-response,246,493859,0.0-3.0-0.0-0.68,circles,squares,squares,test,1,"""","""","""","""","""","""","""","""","""","""","""","2020-12-15 18:38:47",96.248.40.73,"Mozilla/5.0 (Windows NT 10.0; Win64; x64) AppleWebKit/537.36 (KHTML, like Gecko) Chrome/87.0.4280.88 Safari/537.36",WebKit,Chrome,87.0.4280.88,Windows,10.0
