run_id,condition,rt,stimulus,key_press,trial_type,trial_index,time_elapsed,internal_node_id,phase,block,trial,rewarded,image,task,correct_shape,response,correct,recorded_at,ip,user_agent,device,browser,browser_version,platform,platform_version
33,1,5773.515000008047,"<p>Welcome! Please position your index fingers on the ""A"" and ""L"" keys for this experiment.
        The game will last approximately 10 minutes and is composed of 3 blocks 
        separated by a break.</p><p>Press the spacebar to continue.</p>",32,html-keyboard-response,0,5777,0.0-0.0-0.0,"""","""","""","""","""","""","""","""","""","2020-11-09 16:02:37",98.200.17.108,"Mozilla/5.0 (Windows NT 6.1; Win64; x64) AppleWebKit/537.36 (KHTML, like Gecko) Chrome/86.0.4240.183 Safari/537.36",WebKit,Chrome,86.0.4240.183,Windows,6.1
33,1,22861.34500001208,"<p>In this experiment you will be presented with either an image with more squares than circles, or an image with 
        more circles than squares. You will see them one at a time.</p>
        <p>Your task will be to decide whether more squares or more circles were presented by pushing the correct button as quickly
        and accurately as possible.</p>
        <p>The ""A"" key will be used to identify more circles and the ""L"" key will be used 
        to identify more squares. Examples of what the images look like are below:</p>
        <p style=""height: 300px;"">
        <img style=""width:250px; float: left;"" src=""7S_10C_yellow1.jpg""></img>
        <img style=""width:250px; float: right;"" src=""7C_10S_yellow3.jpg""></img>
        <span style=""text-align:center; width:250px; clear:both; float: left;"">More circles = A</span>
        <span style=""text-align:center; width:250px; float: right;"">More squares = L</span>
        </p>
        <p>Press the spacebar to continue.</p>",32,html-keyboard-response,1,28649,0.0-0.0-1.0,"""","""","""","""","""","""","""","""","""","2020-11-09 16:02:37",98.200.17.108,"Mozilla/5.0 (Windows NT 6.1; Win64; x64) AppleWebKit/537.36 (KHTML, like Gecko) Chrome/86.0.4240.183 Safari/537.36",WebKit,Chrome,86.0.4240.183,Windows,6.1
33,1,22341.52499999618,"<p>Now, let's take a practice run. You will see a fixation cross, '+', on the screen. You should always focus your
        attention on the fixation cross as this will help you identify the image as quickly and accurately as possible. The fixation
        cross will be followed by an image with more squares or more circles. Remember, if you think there are more circles
        press the ""A"" key. If you think there are more squares press the ""L"" key.</p>
        <p>If you understand these directions and are ready to proceed to the practice round, please press the spacebar.</p>",32,html-keyboard-response,2,50993,0.0-0.0-2.0,"""","""","""","""","""","""","""","""","""","2020-11-09 16:02:37",98.200.17.108,"Mozilla/5.0 (Windows NT 6.1; Win64; x64) AppleWebKit/537.36 (KHTML, like Gecko) Chrome/86.0.4240.183 Safari/537.36",WebKit,Chrome,86.0.4240.183,Windows,6.1
33,1,null,"<p class=""fixation"">+</p>",null,html-keyboard-response,3,51498,0.0-1.0-0.0-0.0,practice,"""","""","""","""","""","""","""","""","2020-11-09 16:02:37",98.200.17.108,"Mozilla/5.0 (Windows NT 6.1; Win64; x64) AppleWebKit/537.36 (KHTML, like Gecko) Chrome/86.0.4240.183 Safari/537.36",WebKit,Chrome,86.0.4240.183,Windows,6.1
33,1,1072.0600000058766,"<img src=""7C_10S_yellow5.jpg"" style=""width:500px;""></img>",76,html-keyboard-response,4,52574,0.0-1.0-0.0-1.0,practice,null,null,null,7C_10S_yellow5.jpg,respond,squares,squares,true,"2020-11-09 16:02:37",98.200.17.108,"Mozilla/5.0 (Windows NT 6.1; Win64; x64) AppleWebKit/537.36 (KHTML, like Gecko) Chrome/86.0.4240.183 Safari/537.36",WebKit,Chrome,86.0.4240.183,Windows,6.1
33,1,null,reward-coin-drop.mp3,null,audio-keyboard-response,5,54077,0.0-1.0-0.0-2.0,practice,"""","""","""","""",accuracy-feedback,"""","""","""","2020-11-09 16:02:37",98.200.17.108,"Mozilla/5.0 (Windows NT 6.1; Win64; x64) AppleWebKit/537.36 (KHTML, like Gecko) Chrome/86.0.4240.183 Safari/537.36",WebKit,Chrome,86.0.4240.183,Windows,6.1
33,1,null,"""",null,html-keyboard-response,6,55581,0.0-1.0-0.0-3.0-0.0,practice,"""","""","""","""","""","""","""","""","2020-11-09 16:02:37",98.200.17.108,"Mozilla/5.0 (Windows NT 6.1; Win64; x64) AppleWebKit/537.36 (KHTML, like Gecko) Chrome/86.0.4240.183 Safari/537.36",WebKit,Chrome,86.0.4240.183,Windows,6.1
33,1,null,"<p class=""fixation"">+</p>",null,html-keyboard-response,7,56083,0.0-1.0-0.0-0.1,practice,"""","""","""","""","""","""","""","""","2020-11-09 16:02:37",98.200.17.108,"Mozilla/5.0 (Windows NT 6.1; Win64; x64) AppleWebKit/537.36 (KHTML, like Gecko) Chrome/86.0.4240.183 Safari/537.36",WebKit,Chrome,86.0.4240.183,Windows,6.1
33,1,865.0799999886658,"<img src=""7S_10C_yellow2.jpg"" style=""width:500px;""></img>",76,html-keyboard-response,8,56951,0.0-1.0-0.0-1.1,practice,null,null,null,7S_10C_yellow2.jpg,respond,circles,squares,false,"2020-11-09 16:02:37",98.200.17.108,"Mozilla/5.0 (Windows NT 6.1; Win64; x64) AppleWebKit/537.36 (KHTML, like Gecko) Chrome/86.0.4240.183 Safari/537.36",WebKit,Chrome,86.0.4240.183,Windows,6.1
33,1,null,null,null,audio-keyboard-response,9,58457,0.0-1.0-0.0-2.1,practice,"""","""","""","""",accuracy-feedback,"""","""","""","2020-11-09 16:02:37",98.200.17.108,"Mozilla/5.0 (Windows NT 6.1; Win64; x64) AppleWebKit/537.36 (KHTML, like Gecko) Chrome/86.0.4240.183 Safari/537.36",WebKit,Chrome,86.0.4240.183,Windows,6.1
33,1,null,"""",null,html-keyboard-response,10,59959,0.0-1.0-0.0-3.1-0.1,practice,"""","""","""","""","""","""","""","""","2020-11-09 16:02:37",98.200.17.108,"Mozilla/5.0 (Windows NT 6.1; Win64; x64) AppleWebKit/537.36 (KHTML, like Gecko) Chrome/86.0.4240.183 Safari/537.36",WebKit,Chrome,86.0.4240.183,Windows,6.1
33,1,null,"<p class=""fixation"">+</p>",null,html-keyboard-response,11,60464,0.0-1.0-0.0-0.2,practice,"""","""","""","""","""","""","""","""","2020-11-09 16:02:37",98.200.17.108,"Mozilla/5.0 (Windows NT 6.1; Win64; x64) AppleWebKit/537.36 (KHTML, like Gecko) Chrome/86.0.4240.183 Safari/537.36",WebKit,Chrome,86.0.4240.183,Windows,6.1
33,1,661.034999997355,"<img src=""7S_10C_yellow3.jpg"" style=""width:500px;""></img>",65,html-keyboard-response,12,61128,0.0-1.0-0.0-1.2,practice,null,null,null,7S_10C_yellow3.jpg,respond,circles,circles,true,"2020-11-09 16:02:37",98.200.17.108,"Mozilla/5.0 (Windows NT 6.1; Win64; x64) AppleWebKit/537.36 (KHTML, like Gecko) Chrome/86.0.4240.183 Safari/537.36",WebKit,Chrome,86.0.4240.183,Windows,6.1
33,1,null,reward-coin-drop.mp3,null,audio-keyboard-response,13,62631,0.0-1.0-0.0-2.2,practice,"""","""","""","""",accuracy-feedback,"""","""","""","2020-11-09 16:02:37",98.200.17.108,"Mozilla/5.0 (Windows NT 6.1; Win64; x64) AppleWebKit/537.36 (KHTML, like Gecko) Chrome/86.0.4240.183 Safari/537.36",WebKit,Chrome,86.0.4240.183,Windows,6.1
33,1,null,"""",null,html-keyboard-response,14,64132,0.0-1.0-0.0-3.2-0.2,practice,"""","""","""","""","""","""","""","""","2020-11-09 16:02:37",98.200.17.108,"Mozilla/5.0 (Windows NT 6.1; Win64; x64) AppleWebKit/537.36 (KHTML, like Gecko) Chrome/86.0.4240.183 Safari/537.36",WebKit,Chrome,86.0.4240.183,Windows,6.1
33,1,null,"<p class=""fixation"">+</p>",null,html-keyboard-response,15,64637,0.0-1.0-0.0-0.3,practice,"""","""","""","""","""","""","""","""","2020-11-09 16:02:37",98.200.17.108,"Mozilla/5.0 (Windows NT 6.1; Win64; x64) AppleWebKit/537.36 (KHTML, like Gecko) Chrome/86.0.4240.183 Safari/537.36",WebKit,Chrome,86.0.4240.183,Windows,6.1
33,1,739.8750000284053,"<img src=""7C_10S_yellow4.jpg"" style=""width:500px;""></img>",76,html-keyboard-response,16,65379,0.0-1.0-0.0-1.3,practice,null,null,null,7C_10S_yellow4.jpg,respond,squares,squares,true,"2020-11-09 16:02:37",98.200.17.108,"Mozilla/5.0 (Windows NT 6.1; Win64; x64) AppleWebKit/537.36 (KHTML, like Gecko) Chrome/86.0.4240.183 Safari/537.36",WebKit,Chrome,86.0.4240.183,Windows,6.1
33,1,null,reward-coin-drop.mp3,null,audio-keyboard-response,17,66881,0.0-1.0-0.0-2.3,practice,"""","""","""","""",accuracy-feedback,"""","""","""","2020-11-09 16:02:37",98.200.17.108,"Mozilla/5.0 (Windows NT 6.1; Win64; x64) AppleWebKit/537.36 (KHTML, like Gecko) Chrome/86.0.4240.183 Safari/537.36",WebKit,Chrome,86.0.4240.183,Windows,6.1
33,1,null,"""",null,html-keyboard-response,18,68385,0.0-1.0-0.0-3.3-0.3,practice,"""","""","""","""","""","""","""","""","2020-11-09 16:02:37",98.200.17.108,"Mozilla/5.0 (Windows NT 6.1; Win64; x64) AppleWebKit/537.36 (KHTML, like Gecko) Chrome/86.0.4240.183 Safari/537.36",WebKit,Chrome,86.0.4240.183,Windows,6.1
33,1,null,"<p class=""fixation"">+</p>",null,html-keyboard-response,19,68887,0.0-1.0-0.0-0.4,practice,"""","""","""","""","""","""","""","""","2020-11-09 16:02:37",98.200.17.108,"Mozilla/5.0 (Windows NT 6.1; Win64; x64) AppleWebKit/537.36 (KHTML, like Gecko) Chrome/86.0.4240.183 Safari/537.36",WebKit,Chrome,86.0.4240.183,Windows,6.1
33,1,973.5249999794178,"<img src=""7C_10S_yellow6.jpg"" style=""width:500px;""></img>",76,html-keyboard-response,20,69863,0.0-1.0-0.0-1.4,practice,null,null,null,7C_10S_yellow6.jpg,respond,squares,squares,true,"2020-11-09 16:02:37",98.200.17.108,"Mozilla/5.0 (Windows NT 6.1; Win64; x64) AppleWebKit/537.36 (KHTML, like Gecko) Chrome/86.0.4240.183 Safari/537.36",WebKit,Chrome,86.0.4240.183,Windows,6.1
33,1,null,reward-coin-drop.mp3,null,audio-keyboard-response,21,71370,0.0-1.0-0.0-2.4,practice,"""","""","""","""",accuracy-feedback,"""","""","""","2020-11-09 16:02:37",98.200.17.108,"Mozilla/5.0 (Windows NT 6.1; Win64; x64) AppleWebKit/537.36 (KHTML, like Gecko) Chrome/86.0.4240.183 Safari/537.36",WebKit,Chrome,86.0.4240.183,Windows,6.1
33,1,null,"""",null,html-keyboard-response,22,72871,0.0-1.0-0.0-3.4-0.4,practice,"""","""","""","""","""","""","""","""","2020-11-09 16:02:37",98.200.17.108,"Mozilla/5.0 (Windows NT 6.1; Win64; x64) AppleWebKit/537.36 (KHTML, like Gecko) Chrome/86.0.4240.183 Safari/537.36",WebKit,Chrome,86.0.4240.183,Windows,6.1
33,1,null,"<p class=""fixation"">+</p>",null,html-keyboard-response,23,73376,0.0-1.0-0.0-0.5,practice,"""","""","""","""","""","""","""","""","2020-11-09 16:02:37",98.200.17.108,"Mozilla/5.0 (Windows NT 6.1; Win64; x64) AppleWebKit/537.36 (KHTML, like Gecko) Chrome/86.0.4240.183 Safari/537.36",WebKit,Chrome,86.0.4240.183,Windows,6.1
33,1,986.8849999911617,"<img src=""7C_10S_yellow3.jpg"" style=""width:500px;""></img>",65,html-keyboard-response,24,74367,0.0-1.0-0.0-1.5,practice,null,null,null,7C_10S_yellow3.jpg,respond,squares,circles,false,"2020-11-09 16:02:37",98.200.17.108,"Mozilla/5.0 (Windows NT 6.1; Win64; x64) AppleWebKit/537.36 (KHTML, like Gecko) Chrome/86.0.4240.183 Safari/537.36",WebKit,Chrome,86.0.4240.183,Windows,6.1
33,1,null,null,null,audio-keyboard-response,25,75868,0.0-1.0-0.0-2.5,practice,"""","""","""","""",accuracy-feedback,"""","""","""","2020-11-09 16:02:37",98.200.17.108,"Mozilla/5.0 (Windows NT 6.1; Win64; x64) AppleWebKit/537.36 (KHTML, like Gecko) Chrome/86.0.4240.183 Safari/537.36",WebKit,Chrome,86.0.4240.183,Windows,6.1
33,1,null,"""",null,html-keyboard-response,26,77373,0.0-1.0-0.0-3.5-0.5,practice,"""","""","""","""","""","""","""","""","2020-11-09 16:02:37",98.200.17.108,"Mozilla/5.0 (Windows NT 6.1; Win64; x64) AppleWebKit/537.36 (KHTML, like Gecko) Chrome/86.0.4240.183 Safari/537.36",WebKit,Chrome,86.0.4240.183,Windows,6.1
33,1,null,"<p class=""fixation"">+</p>",null,html-keyboard-response,27,77875,0.0-1.0-0.0-0.6,practice,"""","""","""","""","""","""","""","""","2020-11-09 16:02:37",98.200.17.108,"Mozilla/5.0 (Windows NT 6.1; Win64; x64) AppleWebKit/537.36 (KHTML, like Gecko) Chrome/86.0.4240.183 Safari/537.36",WebKit,Chrome,86.0.4240.183,Windows,6.1
33,1,787.2700000007171,"<img src=""7S_10C_yellow4.jpg"" style=""width:500px;""></img>",76,html-keyboard-response,28,78666,0.0-1.0-0.0-1.6,practice,null,null,null,7S_10C_yellow4.jpg,respond,circles,squares,false,"2020-11-09 16:02:37",98.200.17.108,"Mozilla/5.0 (Windows NT 6.1; Win64; x64) AppleWebKit/537.36 (KHTML, like Gecko) Chrome/86.0.4240.183 Safari/537.36",WebKit,Chrome,86.0.4240.183,Windows,6.1
33,1,null,null,null,audio-keyboard-response,29,80171,0.0-1.0-0.0-2.6,practice,"""","""","""","""",accuracy-feedback,"""","""","""","2020-11-09 16:02:37",98.200.17.108,"Mozilla/5.0 (Windows NT 6.1; Win64; x64) AppleWebKit/537.36 (KHTML, like Gecko) Chrome/86.0.4240.183 Safari/537.36",WebKit,Chrome,86.0.4240.183,Windows,6.1
33,1,null,"""",null,html-keyboard-response,30,81673,0.0-1.0-0.0-3.6-0.6,practice,"""","""","""","""","""","""","""","""","2020-11-09 16:02:37",98.200.17.108,"Mozilla/5.0 (Windows NT 6.1; Win64; x64) AppleWebKit/537.36 (KHTML, like Gecko) Chrome/86.0.4240.183 Safari/537.36",WebKit,Chrome,86.0.4240.183,Windows,6.1
33,1,null,"<p class=""fixation"">+</p>",null,html-keyboard-response,31,82177,0.0-1.0-0.0-0.7,practice,"""","""","""","""","""","""","""","""","2020-11-09 16:02:37",98.200.17.108,"Mozilla/5.0 (Windows NT 6.1; Win64; x64) AppleWebKit/537.36 (KHTML, like Gecko) Chrome/86.0.4240.183 Safari/537.36",WebKit,Chrome,86.0.4240.183,Windows,6.1
33,1,1059.2799999867566,"<img src=""7S_10C_yellow1.jpg"" style=""width:500px;""></img>",65,html-keyboard-response,32,83239,0.0-1.0-0.0-1.7,practice,null,null,null,7S_10C_yellow1.jpg,respond,circles,circles,true,"2020-11-09 16:02:37",98.200.17.108,"Mozilla/5.0 (Windows NT 6.1; Win64; x64) AppleWebKit/537.36 (KHTML, like Gecko) Chrome/86.0.4240.183 Safari/537.36",WebKit,Chrome,86.0.4240.183,Windows,6.1
33,1,null,reward-coin-drop.mp3,null,audio-keyboard-response,33,84741,0.0-1.0-0.0-2.7,practice,"""","""","""","""",accuracy-feedback,"""","""","""","2020-11-09 16:02:37",98.200.17.108,"Mozilla/5.0 (Windows NT 6.1; Win64; x64) AppleWebKit/537.36 (KHTML, like Gecko) Chrome/86.0.4240.183 Safari/537.36",WebKit,Chrome,86.0.4240.183,Windows,6.1
33,1,null,"""",null,html-keyboard-response,34,86251,0.0-1.0-0.0-3.7-0.7,practice,"""","""","""","""","""","""","""","""","2020-11-09 16:02:37",98.200.17.108,"Mozilla/5.0 (Windows NT 6.1; Win64; x64) AppleWebKit/537.36 (KHTML, like Gecko) Chrome/86.0.4240.183 Safari/537.36",WebKit,Chrome,86.0.4240.183,Windows,6.1
33,1,2273.545000003651,"<p>Would you like to practice more? y = yes, n = no</p>",78,html-keyboard-response,35,88525,0.0-1.0-1.0,"""","""","""","""","""","""","""","""","""","2020-11-09 16:02:37",98.200.17.108,"Mozilla/5.0 (Windows NT 6.1; Win64; x64) AppleWebKit/537.36 (KHTML, like Gecko) Chrome/86.0.4240.183 Safari/537.36",WebKit,Chrome,86.0.4240.183,Windows,6.1
33,1,9385.21999999648,"<p>For some trials, a correct identification will result in a monetary reward of 20 cents.</p>
          <p>Press the spacebar to see what this will look like.</p>",32,html-keyboard-response,36,97915,0.0-2.0-0.0,"""","""","""","""","""","""","""","""","""","2020-11-09 16:02:37",98.200.17.108,"Mozilla/5.0 (Windows NT 6.1; Win64; x64) AppleWebKit/537.36 (KHTML, like Gecko) Chrome/86.0.4240.183 Safari/537.36",WebKit,Chrome,86.0.4240.183,Windows,6.1
33,1,null,reward-coin-drop.mp3,null,audio-keyboard-response,37,99419,0.0-2.0-1.0,"""","""","""","""","""","""","""","""","""","2020-11-09 16:02:37",98.200.17.108,"Mozilla/5.0 (Windows NT 6.1; Win64; x64) AppleWebKit/537.36 (KHTML, like Gecko) Chrome/86.0.4240.183 Safari/537.36",WebKit,Chrome,86.0.4240.183,Windows,6.1
33,1,9120.495000010123,"<p><span style=""color:red; font-weight:bold;"">Not all</span> correct responses will receive a reward.</p><p>At the end of the experiment you will be given the amount of money you have accumulated. The more correct identifications
          you make, the more money you will take home.</p><p>Press the spacebar to continue.</p>",32,html-keyboard-response,38,108544,0.0-2.0-2.0,"""","""","""","""","""","""","""","""","""","2020-11-09 16:02:37",98.200.17.108,"Mozilla/5.0 (Windows NT 6.1; Win64; x64) AppleWebKit/537.36 (KHTML, like Gecko) Chrome/86.0.4240.183 Safari/537.36",WebKit,Chrome,86.0.4240.183,Windows,6.1
33,1,6265.775000007125,"<p>We are now ready to begin the experiment.</p>
        <p>Remember, focus your attention on the fixation cross before each trial. If you think there are more circles
        press the ""A"" key. If you think there are more squares press the ""L"" key.</p>
        <p>Good luck!</p>
        <p>Press the spacebar to begin.</p>",32,html-keyboard-response,39,114811,0.0-2.0-3.0,"""","""","""","""","""","""","""","""","""","2020-11-09 16:02:37",98.200.17.108,"Mozilla/5.0 (Windows NT 6.1; Win64; x64) AppleWebKit/537.36 (KHTML, like Gecko) Chrome/86.0.4240.183 Safari/537.36",WebKit,Chrome,86.0.4240.183,Windows,6.1
33,1,null,"<p class=""fixation"">+</p>",null,html-keyboard-response,40,115314,0.0-3.0-0.0-0.0,test,1,"""","""","""","""","""","""","""","2020-11-09 16:02:37",98.200.17.108,"Mozilla/5.0 (Windows NT 6.1; Win64; x64) AppleWebKit/537.36 (KHTML, like Gecko) Chrome/86.0.4240.183 Safari/537.36",WebKit,Chrome,86.0.4240.183,Windows,6.1
33,1,825.5550000176299,"<img src=""7S_10C_yellow6.jpg"" style=""width:500px;""></img>",76,html-keyboard-response,41,116145,0.0-3.0-0.0-1.0,test,1,1,0,7S_10C_yellow6.jpg,respond,circles,squares,false,"2020-11-09 16:02:37",98.200.17.108,"Mozilla/5.0 (Windows NT 6.1; Win64; x64) AppleWebKit/537.36 (KHTML, like Gecko) Chrome/86.0.4240.183 Safari/537.36",WebKit,Chrome,86.0.4240.183,Windows,6.1
33,1,null,"""",null,html-keyboard-response,42,117646,0.0-3.0-0.0-3.0-0.0,test,1,"""","""","""","""","""","""","""","2020-11-09 16:02:37",98.200.17.108,"Mozilla/5.0 (Windows NT 6.1; Win64; x64) AppleWebKit/537.36 (KHTML, like Gecko) Chrome/86.0.4240.183 Safari/537.36",WebKit,Chrome,86.0.4240.183,Windows,6.1
33,1,null,"<p class=""fixation"">+</p>",null,html-keyboard-response,43,118150,0.0-3.0-0.0-0.1,test,1,"""","""","""","""","""","""","""","2020-11-09 16:02:37",98.200.17.108,"Mozilla/5.0 (Windows NT 6.1; Win64; x64) AppleWebKit/537.36 (KHTML, like Gecko) Chrome/86.0.4240.183 Safari/537.36",WebKit,Chrome,86.0.4240.183,Windows,6.1
33,1,899.4800000218675,"<img src=""7C_10S_yellow5.jpg"" style=""width:500px;""></img>",76,html-keyboard-response,44,119053,0.0-3.0-0.0-1.1,test,1,2,1,7C_10S_yellow5.jpg,respond,squares,squares,true,"2020-11-09 16:02:37",98.200.17.108,"Mozilla/5.0 (Windows NT 6.1; Win64; x64) AppleWebKit/537.36 (KHTML, like Gecko) Chrome/86.0.4240.183 Safari/537.36",WebKit,Chrome,86.0.4240.183,Windows,6.1
33,1,null,reward-coin-drop.mp3,null,audio-keyboard-response,45,120555,0.0-3.0-0.0-2.1-0.1,test,1,"""","""","""",reward-feedback,"""","""","""","2020-11-09 16:02:37",98.200.17.108,"Mozilla/5.0 (Windows NT 6.1; Win64; x64) AppleWebKit/537.36 (KHTML, like Gecko) Chrome/86.0.4240.183 Safari/537.36",WebKit,Chrome,86.0.4240.183,Windows,6.1
33,1,null,"<p class=""fixation"">+</p>",null,html-keyboard-response,46,121059,0.0-3.0-0.0-0.2,test,1,"""","""","""","""","""","""","""","2020-11-09 16:02:37",98.200.17.108,"Mozilla/5.0 (Windows NT 6.1; Win64; x64) AppleWebKit/537.36 (KHTML, like Gecko) Chrome/86.0.4240.183 Safari/537.36",WebKit,Chrome,86.0.4240.183,Windows,6.1
33,1,1028.889999986859,"<img src=""7S_10C_yellow6.jpg"" style=""width:500px;""></img>",65,html-keyboard-response,47,122090,0.0-3.0-0.0-1.2,test,1,3,0,7S_10C_yellow6.jpg,respond,circles,circles,true,"2020-11-09 16:02:37",98.200.17.108,"Mozilla/5.0 (Windows NT 6.1; Win64; x64) AppleWebKit/537.36 (KHTML, like Gecko) Chrome/86.0.4240.183 Safari/537.36",WebKit,Chrome,86.0.4240.183,Windows,6.1
33,1,null,"""",null,html-keyboard-response,48,123592,0.0-3.0-0.0-3.2-0.2,test,1,"""","""","""","""","""","""","""","2020-11-09 16:02:37",98.200.17.108,"Mozilla/5.0 (Windows NT 6.1; Win64; x64) AppleWebKit/537.36 (KHTML, like Gecko) Chrome/86.0.4240.183 Safari/537.36",WebKit,Chrome,86.0.4240.183,Windows,6.1
33,1,null,"<p class=""fixation"">+</p>",null,html-keyboard-response,49,124097,0.0-3.0-0.0-0.3,test,1,"""","""","""","""","""","""","""","2020-11-09 16:02:37",98.200.17.108,"Mozilla/5.0 (Windows NT 6.1; Win64; x64) AppleWebKit/537.36 (KHTML, like Gecko) Chrome/86.0.4240.183 Safari/537.36",WebKit,Chrome,86.0.4240.183,Windows,6.1
33,1,708.4350000077393,"<img src=""7C_10S_yellow3.jpg"" style=""width:500px;""></img>",76,html-keyboard-response,50,124809,0.0-3.0-0.0-1.3,test,1,4,1,7C_10S_yellow3.jpg,respond,squares,squares,true,"2020-11-09 16:02:37",98.200.17.108,"Mozilla/5.0 (Windows NT 6.1; Win64; x64) AppleWebKit/537.36 (KHTML, like Gecko) Chrome/86.0.4240.183 Safari/537.36",WebKit,Chrome,86.0.4240.183,Windows,6.1
33,1,null,reward-coin-drop.mp3,null,audio-keyboard-response,51,126312,0.0-3.0-0.0-2.3-0.3,test,1,"""","""","""",reward-feedback,"""","""","""","2020-11-09 16:02:37",98.200.17.108,"Mozilla/5.0 (Windows NT 6.1; Win64; x64) AppleWebKit/537.36 (KHTML, like Gecko) Chrome/86.0.4240.183 Safari/537.36",WebKit,Chrome,86.0.4240.183,Windows,6.1
33,1,null,"<p class=""fixation"">+</p>",null,html-keyboard-response,52,126816,0.0-3.0-0.0-0.4,test,1,"""","""","""","""","""","""","""","2020-11-09 16:02:37",98.200.17.108,"Mozilla/5.0 (Windows NT 6.1; Win64; x64) AppleWebKit/537.36 (KHTML, like Gecko) Chrome/86.0.4240.183 Safari/537.36",WebKit,Chrome,86.0.4240.183,Windows,6.1
33,1,798.5500000067987,"<img src=""7S_10C_yellow7.jpg"" style=""width:500px;""></img>",65,html-keyboard-response,53,127617,0.0-3.0-0.0-1.4,test,1,5,0,7S_10C_yellow7.jpg,respond,circles,circles,true,"2020-11-09 16:02:37",98.200.17.108,"Mozilla/5.0 (Windows NT 6.1; Win64; x64) AppleWebKit/537.36 (KHTML, like Gecko) Chrome/86.0.4240.183 Safari/537.36",WebKit,Chrome,86.0.4240.183,Windows,6.1
33,1,null,"""",null,html-keyboard-response,54,129119,0.0-3.0-0.0-3.4-0.4,test,1,"""","""","""","""","""","""","""","2020-11-09 16:02:37",98.200.17.108,"Mozilla/5.0 (Windows NT 6.1; Win64; x64) AppleWebKit/537.36 (KHTML, like Gecko) Chrome/86.0.4240.183 Safari/537.36",WebKit,Chrome,86.0.4240.183,Windows,6.1
33,1,null,"<p class=""fixation"">+</p>",null,html-keyboard-response,55,129623,0.0-3.0-0.0-0.5,test,1,"""","""","""","""","""","""","""","2020-11-09 16:02:37",98.200.17.108,"Mozilla/5.0 (Windows NT 6.1; Win64; x64) AppleWebKit/537.36 (KHTML, like Gecko) Chrome/86.0.4240.183 Safari/537.36",WebKit,Chrome,86.0.4240.183,Windows,6.1
33,1,666.7999999772292,"<img src=""7S_10C_yellow7.jpg"" style=""width:500px;""></img>",76,html-keyboard-response,56,130294,0.0-3.0-0.0-1.5,test,1,6,0,7S_10C_yellow7.jpg,respond,circles,squares,false,"2020-11-09 16:02:37",98.200.17.108,"Mozilla/5.0 (Windows NT 6.1; Win64; x64) AppleWebKit/537.36 (KHTML, like Gecko) Chrome/86.0.4240.183 Safari/537.36",WebKit,Chrome,86.0.4240.183,Windows,6.1
33,1,null,"""",null,html-keyboard-response,57,131800,0.0-3.0-0.0-3.5-0.5,test,1,"""","""","""","""","""","""","""","2020-11-09 16:02:37",98.200.17.108,"Mozilla/5.0 (Windows NT 6.1; Win64; x64) AppleWebKit/537.36 (KHTML, like Gecko) Chrome/86.0.4240.183 Safari/537.36",WebKit,Chrome,86.0.4240.183,Windows,6.1
33,1,null,"<p class=""fixation"">+</p>",null,html-keyboard-response,58,132301,0.0-3.0-0.0-0.6,test,1,"""","""","""","""","""","""","""","2020-11-09 16:02:37",98.200.17.108,"Mozilla/5.0 (Windows NT 6.1; Win64; x64) AppleWebKit/537.36 (KHTML, like Gecko) Chrome/86.0.4240.183 Safari/537.36",WebKit,Chrome,86.0.4240.183,Windows,6.1
33,1,836.6150000074413,"<img src=""7S_10C_yellow6.jpg"" style=""width:500px;""></img>",65,html-keyboard-response,59,133143,0.0-3.0-0.0-1.6,test,1,7,0,7S_10C_yellow6.jpg,respond,circles,circles,true,"2020-11-09 16:02:37",98.200.17.108,"Mozilla/5.0 (Windows NT 6.1; Win64; x64) AppleWebKit/537.36 (KHTML, like Gecko) Chrome/86.0.4240.183 Safari/537.36",WebKit,Chrome,86.0.4240.183,Windows,6.1
33,1,null,"""",null,html-keyboard-response,60,134644,0.0-3.0-0.0-3.6-0.6,test,1,"""","""","""","""","""","""","""","2020-11-09 16:02:37",98.200.17.108,"Mozilla/5.0 (Windows NT 6.1; Win64; x64) AppleWebKit/537.36 (KHTML, like Gecko) Chrome/86.0.4240.183 Safari/537.36",WebKit,Chrome,86.0.4240.183,Windows,6.1
33,1,null,"<p class=""fixation"">+</p>",null,html-keyboard-response,61,135146,0.0-3.0-0.0-0.7,test,1,"""","""","""","""","""","""","""","2020-11-09 16:02:37",98.200.17.108,"Mozilla/5.0 (Windows NT 6.1; Win64; x64) AppleWebKit/537.36 (KHTML, like Gecko) Chrome/86.0.4240.183 Safari/537.36",WebKit,Chrome,86.0.4240.183,Windows,6.1
33,1,1105.3649999957997,"<img src=""7C_10S_yellow5.jpg"" style=""width:500px;""></img>",76,html-keyboard-response,62,136256,0.0-3.0-0.0-1.7,test,1,8,1,7C_10S_yellow5.jpg,respond,squares,squares,true,"2020-11-09 16:02:37",98.200.17.108,"Mozilla/5.0 (Windows NT 6.1; Win64; x64) AppleWebKit/537.36 (KHTML, like Gecko) Chrome/86.0.4240.183 Safari/537.36",WebKit,Chrome,86.0.4240.183,Windows,6.1
33,1,null,reward-coin-drop.mp3,null,audio-keyboard-response,63,137759,0.0-3.0-0.0-2.7-0.7,test,1,"""","""","""",reward-feedback,"""","""","""","2020-11-09 16:02:37",98.200.17.108,"Mozilla/5.0 (Windows NT 6.1; Win64; x64) AppleWebKit/537.36 (KHTML, like Gecko) Chrome/86.0.4240.183 Safari/537.36",WebKit,Chrome,86.0.4240.183,Windows,6.1
33,1,null,"<p class=""fixation"">+</p>",null,html-keyboard-response,64,138261,0.0-3.0-0.0-0.8,test,1,"""","""","""","""","""","""","""","2020-11-09 16:02:37",98.200.17.108,"Mozilla/5.0 (Windows NT 6.1; Win64; x64) AppleWebKit/537.36 (KHTML, like Gecko) Chrome/86.0.4240.183 Safari/537.36",WebKit,Chrome,86.0.4240.183,Windows,6.1
33,1,727.4099999922328,"<img src=""7S_10C_yellow9.jpg"" style=""width:500px;""></img>",65,html-keyboard-response,65,138992,0.0-3.0-0.0-1.8,test,1,9,0,7S_10C_yellow9.jpg,respond,circles,circles,true,"2020-11-09 16:02:37",98.200.17.108,"Mozilla/5.0 (Windows NT 6.1; Win64; x64) AppleWebKit/537.36 (KHTML, like Gecko) Chrome/86.0.4240.183 Safari/537.36",WebKit,Chrome,86.0.4240.183,Windows,6.1
33,1,null,"""",null,html-keyboard-response,66,140494,0.0-3.0-0.0-3.8-0.8,test,1,"""","""","""","""","""","""","""","2020-11-09 16:02:37",98.200.17.108,"Mozilla/5.0 (Windows NT 6.1; Win64; x64) AppleWebKit/537.36 (KHTML, like Gecko) Chrome/86.0.4240.183 Safari/537.36",WebKit,Chrome,86.0.4240.183,Windows,6.1
33,1,null,"<p class=""fixation"">+</p>",null,html-keyboard-response,67,140996,0.0-3.0-0.0-0.9,test,1,"""","""","""","""","""","""","""","2020-11-09 16:02:37",98.200.17.108,"Mozilla/5.0 (Windows NT 6.1; Win64; x64) AppleWebKit/537.36 (KHTML, like Gecko) Chrome/86.0.4240.183 Safari/537.36",WebKit,Chrome,86.0.4240.183,Windows,6.1
33,1,980.409999989206,"<img src=""7S_10C_yellow10.jpg"" style=""width:500px;""></img>",65,html-keyboard-response,68,141979,0.0-3.0-0.0-1.9,test,1,10,1,7S_10C_yellow10.jpg,respond,circles,circles,true,"2020-11-09 16:02:37",98.200.17.108,"Mozilla/5.0 (Windows NT 6.1; Win64; x64) AppleWebKit/537.36 (KHTML, like Gecko) Chrome/86.0.4240.183 Safari/537.36",WebKit,Chrome,86.0.4240.183,Windows,6.1
33,1,null,reward-coin-drop.mp3,null,audio-keyboard-response,69,143486,0.0-3.0-0.0-2.9-0.9,test,1,"""","""","""",reward-feedback,"""","""","""","2020-11-09 16:02:37",98.200.17.108,"Mozilla/5.0 (Windows NT 6.1; Win64; x64) AppleWebKit/537.36 (KHTML, like Gecko) Chrome/86.0.4240.183 Safari/537.36",WebKit,Chrome,86.0.4240.183,Windows,6.1
33,1,null,"<p class=""fixation"">+</p>",null,html-keyboard-response,70,143987,0.0-3.0-0.0-0.10,test,1,"""","""","""","""","""","""","""","2020-11-09 16:02:37",98.200.17.108,"Mozilla/5.0 (Windows NT 6.1; Win64; x64) AppleWebKit/537.36 (KHTML, like Gecko) Chrome/86.0.4240.183 Safari/537.36",WebKit,Chrome,86.0.4240.183,Windows,6.1
33,1,651.834999996936,"<img src=""7C_10S_yellow4.jpg"" style=""width:500px;""></img>",76,html-keyboard-response,71,144641,0.0-3.0-0.0-1.10,test,1,11,1,7C_10S_yellow4.jpg,respond,squares,squares,true,"2020-11-09 16:02:37",98.200.17.108,"Mozilla/5.0 (Windows NT 6.1; Win64; x64) AppleWebKit/537.36 (KHTML, like Gecko) Chrome/86.0.4240.183 Safari/537.36",WebKit,Chrome,86.0.4240.183,Windows,6.1
33,1,null,reward-coin-drop.mp3,null,audio-keyboard-response,72,146144,0.0-3.0-0.0-2.10-0.10,test,1,"""","""","""",reward-feedback,"""","""","""","2020-11-09 16:02:37",98.200.17.108,"Mozilla/5.0 (Windows NT 6.1; Win64; x64) AppleWebKit/537.36 (KHTML, like Gecko) Chrome/86.0.4240.183 Safari/537.36",WebKit,Chrome,86.0.4240.183,Windows,6.1
33,1,null,"<p class=""fixation"">+</p>",null,html-keyboard-response,73,146651,0.0-3.0-0.0-0.11,test,1,"""","""","""","""","""","""","""","2020-11-09 16:02:37",98.200.17.108,"Mozilla/5.0 (Windows NT 6.1; Win64; x64) AppleWebKit/537.36 (KHTML, like Gecko) Chrome/86.0.4240.183 Safari/537.36",WebKit,Chrome,86.0.4240.183,Windows,6.1
33,1,739.5800000231247,"<img src=""7S_10C_yellow10.jpg"" style=""width:500px;""></img>",65,html-keyboard-response,74,147392,0.0-3.0-0.0-1.11,test,1,12,0,7S_10C_yellow10.jpg,respond,circles,circles,true,"2020-11-09 16:02:37",98.200.17.108,"Mozilla/5.0 (Windows NT 6.1; Win64; x64) AppleWebKit/537.36 (KHTML, like Gecko) Chrome/86.0.4240.183 Safari/537.36",WebKit,Chrome,86.0.4240.183,Windows,6.1
33,1,null,"""",null,html-keyboard-response,75,148894,0.0-3.0-0.0-3.11-0.11,test,1,"""","""","""","""","""","""","""","2020-11-09 16:02:37",98.200.17.108,"Mozilla/5.0 (Windows NT 6.1; Win64; x64) AppleWebKit/537.36 (KHTML, like Gecko) Chrome/86.0.4240.183 Safari/537.36",WebKit,Chrome,86.0.4240.183,Windows,6.1
33,1,null,"<p class=""fixation"">+</p>",null,html-keyboard-response,76,149398,0.0-3.0-0.0-0.12,test,1,"""","""","""","""","""","""","""","2020-11-09 16:02:37",98.200.17.108,"Mozilla/5.0 (Windows NT 6.1; Win64; x64) AppleWebKit/537.36 (KHTML, like Gecko) Chrome/86.0.4240.183 Safari/537.36",WebKit,Chrome,86.0.4240.183,Windows,6.1
33,1,1098.8499999803025,"<img src=""7C_10S_yellow4.jpg"" style=""width:500px;""></img>",76,html-keyboard-response,77,150499,0.0-3.0-0.0-1.12,test,1,13,1,7C_10S_yellow4.jpg,respond,squares,squares,true,"2020-11-09 16:02:37",98.200.17.108,"Mozilla/5.0 (Windows NT 6.1; Win64; x64) AppleWebKit/537.36 (KHTML, like Gecko) Chrome/86.0.4240.183 Safari/537.36",WebKit,Chrome,86.0.4240.183,Windows,6.1
33,1,null,reward-coin-drop.mp3,null,audio-keyboard-response,78,152003,0.0-3.0-0.0-2.12-0.12,test,1,"""","""","""",reward-feedback,"""","""","""","2020-11-09 16:02:37",98.200.17.108,"Mozilla/5.0 (Windows NT 6.1; Win64; x64) AppleWebKit/537.36 (KHTML, like Gecko) Chrome/86.0.4240.183 Safari/537.36",WebKit,Chrome,86.0.4240.183,Windows,6.1
33,1,null,"<p class=""fixation"">+</p>",null,html-keyboard-response,79,152507,0.0-3.0-0.0-0.13,test,1,"""","""","""","""","""","""","""","2020-11-09 16:02:37",98.200.17.108,"Mozilla/5.0 (Windows NT 6.1; Win64; x64) AppleWebKit/537.36 (KHTML, like Gecko) Chrome/86.0.4240.183 Safari/537.36",WebKit,Chrome,86.0.4240.183,Windows,6.1
33,1,846.5750000032131,"<img src=""7S_10C_yellow8.jpg"" style=""width:500px;""></img>",65,html-keyboard-response,80,153356,0.0-3.0-0.0-1.13,test,1,14,1,7S_10C_yellow8.jpg,respond,circles,circles,true,"2020-11-09 16:02:37",98.200.17.108,"Mozilla/5.0 (Windows NT 6.1; Win64; x64) AppleWebKit/537.36 (KHTML, like Gecko) Chrome/86.0.4240.183 Safari/537.36",WebKit,Chrome,86.0.4240.183,Windows,6.1
33,1,null,reward-coin-drop.mp3,null,audio-keyboard-response,81,154859,0.0-3.0-0.0-2.13-0.13,test,1,"""","""","""",reward-feedback,"""","""","""","2020-11-09 16:02:37",98.200.17.108,"Mozilla/5.0 (Windows NT 6.1; Win64; x64) AppleWebKit/537.36 (KHTML, like Gecko) Chrome/86.0.4240.183 Safari/537.36",WebKit,Chrome,86.0.4240.183,Windows,6.1
33,1,null,"<p class=""fixation"">+</p>",null,html-keyboard-response,82,155363,0.0-3.0-0.0-0.14,test,1,"""","""","""","""","""","""","""","2020-11-09 16:02:37",98.200.17.108,"Mozilla/5.0 (Windows NT 6.1; Win64; x64) AppleWebKit/537.36 (KHTML, like Gecko) Chrome/86.0.4240.183 Safari/537.36",WebKit,Chrome,86.0.4240.183,Windows,6.1
33,1,899.2300000099931,"<img src=""7C_10S_yellow6.jpg"" style=""width:500px;""></img>",76,html-keyboard-response,83,156265,0.0-3.0-0.0-1.14,test,1,15,0,7C_10S_yellow6.jpg,respond,squares,squares,true,"2020-11-09 16:02:37",98.200.17.108,"Mozilla/5.0 (Windows NT 6.1; Win64; x64) AppleWebKit/537.36 (KHTML, like Gecko) Chrome/86.0.4240.183 Safari/537.36",WebKit,Chrome,86.0.4240.183,Windows,6.1
33,1,null,"""",null,html-keyboard-response,84,157767,0.0-3.0-0.0-3.14-0.14,test,1,"""","""","""","""","""","""","""","2020-11-09 16:02:37",98.200.17.108,"Mozilla/5.0 (Windows NT 6.1; Win64; x64) AppleWebKit/537.36 (KHTML, like Gecko) Chrome/86.0.4240.183 Safari/537.36",WebKit,Chrome,86.0.4240.183,Windows,6.1
33,1,null,"<p class=""fixation"">+</p>",null,html-keyboard-response,85,158274,0.0-3.0-0.0-0.15,test,1,"""","""","""","""","""","""","""","2020-11-09 16:02:37",98.200.17.108,"Mozilla/5.0 (Windows NT 6.1; Win64; x64) AppleWebKit/537.36 (KHTML, like Gecko) Chrome/86.0.4240.183 Safari/537.36",WebKit,Chrome,86.0.4240.183,Windows,6.1
33,1,1015.3649999992922,"<img src=""7C_10S_yellow5.jpg"" style=""width:500px;""></img>",65,html-keyboard-response,86,159291,0.0-3.0-0.0-1.15,test,1,16,1,7C_10S_yellow5.jpg,respond,squares,circles,false,"2020-11-09 16:02:37",98.200.17.108,"Mozilla/5.0 (Windows NT 6.1; Win64; x64) AppleWebKit/537.36 (KHTML, like Gecko) Chrome/86.0.4240.183 Safari/537.36",WebKit,Chrome,86.0.4240.183,Windows,6.1
33,1,null,"""",null,html-keyboard-response,87,160792,0.0-3.0-0.0-3.15-0.15,test,1,"""","""","""","""","""","""","""","2020-11-09 16:02:37",98.200.17.108,"Mozilla/5.0 (Windows NT 6.1; Win64; x64) AppleWebKit/537.36 (KHTML, like Gecko) Chrome/86.0.4240.183 Safari/537.36",WebKit,Chrome,86.0.4240.183,Windows,6.1
33,1,null,"<p class=""fixation"">+</p>",null,html-keyboard-response,88,161298,0.0-3.0-0.0-0.16,test,1,"""","""","""","""","""","""","""","2020-11-09 16:02:37",98.200.17.108,"Mozilla/5.0 (Windows NT 6.1; Win64; x64) AppleWebKit/537.36 (KHTML, like Gecko) Chrome/86.0.4240.183 Safari/537.36",WebKit,Chrome,86.0.4240.183,Windows,6.1
33,1,1044.0099999832455,"<img src=""7S_10C_yellow8.jpg"" style=""width:500px;""></img>",65,html-keyboard-response,89,162344,0.0-3.0-0.0-1.16,test,1,17,0,7S_10C_yellow8.jpg,respond,circles,circles,true,"2020-11-09 16:02:37",98.200.17.108,"Mozilla/5.0 (Windows NT 6.1; Win64; x64) AppleWebKit/537.36 (KHTML, like Gecko) Chrome/86.0.4240.183 Safari/537.36",WebKit,Chrome,86.0.4240.183,Windows,6.1
33,1,null,"""",null,html-keyboard-response,90,163846,0.0-3.0-0.0-3.16-0.16,test,1,"""","""","""","""","""","""","""","2020-11-09 16:02:37",98.200.17.108,"Mozilla/5.0 (Windows NT 6.1; Win64; x64) AppleWebKit/537.36 (KHTML, like Gecko) Chrome/86.0.4240.183 Safari/537.36",WebKit,Chrome,86.0.4240.183,Windows,6.1
33,1,null,"<p class=""fixation"">+</p>",null,html-keyboard-response,91,164351,0.0-3.0-0.0-0.17,test,1,"""","""","""","""","""","""","""","2020-11-09 16:02:37",98.200.17.108,"Mozilla/5.0 (Windows NT 6.1; Win64; x64) AppleWebKit/537.36 (KHTML, like Gecko) Chrome/86.0.4240.183 Safari/537.36",WebKit,Chrome,86.0.4240.183,Windows,6.1
33,1,980.7700000237674,"<img src=""7S_10C_yellow7.jpg"" style=""width:500px;""></img>",76,html-keyboard-response,92,165335,0.0-3.0-0.0-1.17,test,1,18,0,7S_10C_yellow7.jpg,respond,circles,squares,false,"2020-11-09 16:02:37",98.200.17.108,"Mozilla/5.0 (Windows NT 6.1; Win64; x64) AppleWebKit/537.36 (KHTML, like Gecko) Chrome/86.0.4240.183 Safari/537.36",WebKit,Chrome,86.0.4240.183,Windows,6.1
33,1,null,"""",null,html-keyboard-response,93,166836,0.0-3.0-0.0-3.17-0.17,test,1,"""","""","""","""","""","""","""","2020-11-09 16:02:37",98.200.17.108,"Mozilla/5.0 (Windows NT 6.1; Win64; x64) AppleWebKit/537.36 (KHTML, like Gecko) Chrome/86.0.4240.183 Safari/537.36",WebKit,Chrome,86.0.4240.183,Windows,6.1
33,1,null,"<p class=""fixation"">+</p>",null,html-keyboard-response,94,167341,0.0-3.0-0.0-0.18,test,1,"""","""","""","""","""","""","""","2020-11-09 16:02:37",98.200.17.108,"Mozilla/5.0 (Windows NT 6.1; Win64; x64) AppleWebKit/537.36 (KHTML, like Gecko) Chrome/86.0.4240.183 Safari/537.36",WebKit,Chrome,86.0.4240.183,Windows,6.1
33,1,737.4300000083167,"<img src=""7S_10C_yellow10.jpg"" style=""width:500px;""></img>",65,html-keyboard-response,95,168081,0.0-3.0-0.0-1.18,test,1,19,1,7S_10C_yellow10.jpg,respond,circles,circles,true,"2020-11-09 16:02:37",98.200.17.108,"Mozilla/5.0 (Windows NT 6.1; Win64; x64) AppleWebKit/537.36 (KHTML, like Gecko) Chrome/86.0.4240.183 Safari/537.36",WebKit,Chrome,86.0.4240.183,Windows,6.1
33,1,null,reward-coin-drop.mp3,null,audio-keyboard-response,96,169584,0.0-3.0-0.0-2.18-0.18,test,1,"""","""","""",reward-feedback,"""","""","""","2020-11-09 16:02:37",98.200.17.108,"Mozilla/5.0 (Windows NT 6.1; Win64; x64) AppleWebKit/537.36 (KHTML, like Gecko) Chrome/86.0.4240.183 Safari/537.36",WebKit,Chrome,86.0.4240.183,Windows,6.1
33,1,null,"<p class=""fixation"">+</p>",null,html-keyboard-response,97,170088,0.0-3.0-0.0-0.19,test,1,"""","""","""","""","""","""","""","2020-11-09 16:02:37",98.200.17.108,"Mozilla/5.0 (Windows NT 6.1; Win64; x64) AppleWebKit/537.36 (KHTML, like Gecko) Chrome/86.0.4240.183 Safari/537.36",WebKit,Chrome,86.0.4240.183,Windows,6.1
33,1,1063.2599999953527,"<img src=""7C_10S_yellow5.jpg"" style=""width:500px;""></img>",76,html-keyboard-response,98,171153,0.0-3.0-0.0-1.19,test,1,20,1,7C_10S_yellow5.jpg,respond,squares,squares,true,"2020-11-09 16:02:37",98.200.17.108,"Mozilla/5.0 (Windows NT 6.1; Win64; x64) AppleWebKit/537.36 (KHTML, like Gecko) Chrome/86.0.4240.183 Safari/537.36",WebKit,Chrome,86.0.4240.183,Windows,6.1
33,1,null,reward-coin-drop.mp3,null,audio-keyboard-response,99,172656,0.0-3.0-0.0-2.19-0.19,test,1,"""","""","""",reward-feedback,"""","""","""","2020-11-09 16:02:37",98.200.17.108,"Mozilla/5.0 (Windows NT 6.1; Win64; x64) AppleWebKit/537.36 (KHTML, like Gecko) Chrome/86.0.4240.183 Safari/537.36",WebKit,Chrome,86.0.4240.183,Windows,6.1
33,1,null,"<p class=""fixation"">+</p>",null,html-keyboard-response,100,173161,0.0-3.0-0.0-0.20,test,1,"""","""","""","""","""","""","""","2020-11-09 16:02:37",98.200.17.108,"Mozilla/5.0 (Windows NT 6.1; Win64; x64) AppleWebKit/537.36 (KHTML, like Gecko) Chrome/86.0.4240.183 Safari/537.36",WebKit,Chrome,86.0.4240.183,Windows,6.1
33,1,835.2500000037253,"<img src=""7C_10S_yellow5.jpg"" style=""width:500px;""></img>",65,html-keyboard-response,101,173998,0.0-3.0-0.0-1.20,test,1,21,0,7C_10S_yellow5.jpg,respond,squares,circles,false,"2020-11-09 16:02:37",98.200.17.108,"Mozilla/5.0 (Windows NT 6.1; Win64; x64) AppleWebKit/537.36 (KHTML, like Gecko) Chrome/86.0.4240.183 Safari/537.36",WebKit,Chrome,86.0.4240.183,Windows,6.1
33,1,null,"""",null,html-keyboard-response,102,175500,0.0-3.0-0.0-3.20-0.20,test,1,"""","""","""","""","""","""","""","2020-11-09 16:02:37",98.200.17.108,"Mozilla/5.0 (Windows NT 6.1; Win64; x64) AppleWebKit/537.36 (KHTML, like Gecko) Chrome/86.0.4240.183 Safari/537.36",WebKit,Chrome,86.0.4240.183,Windows,6.1
33,1,null,"<p class=""fixation"">+</p>",null,html-keyboard-response,103,176006,0.0-3.0-0.0-0.21,test,1,"""","""","""","""","""","""","""","2020-11-09 16:02:37",98.200.17.108,"Mozilla/5.0 (Windows NT 6.1; Win64; x64) AppleWebKit/537.36 (KHTML, like Gecko) Chrome/86.0.4240.183 Safari/537.36",WebKit,Chrome,86.0.4240.183,Windows,6.1
33,1,1012.9499999748077,"<img src=""7S_10C_yellow6.jpg"" style=""width:500px;""></img>",76,html-keyboard-response,104,177022,0.0-3.0-0.0-1.21,test,1,22,0,7S_10C_yellow6.jpg,respond,circles,squares,false,"2020-11-09 16:02:37",98.200.17.108,"Mozilla/5.0 (Windows NT 6.1; Win64; x64) AppleWebKit/537.36 (KHTML, like Gecko) Chrome/86.0.4240.183 Safari/537.36",WebKit,Chrome,86.0.4240.183,Windows,6.1
33,1,null,"""",null,html-keyboard-response,105,178526,0.0-3.0-0.0-3.21-0.21,test,1,"""","""","""","""","""","""","""","2020-11-09 16:02:37",98.200.17.108,"Mozilla/5.0 (Windows NT 6.1; Win64; x64) AppleWebKit/537.36 (KHTML, like Gecko) Chrome/86.0.4240.183 Safari/537.36",WebKit,Chrome,86.0.4240.183,Windows,6.1
33,1,null,"<p class=""fixation"">+</p>",null,html-keyboard-response,106,179031,0.0-3.0-0.0-0.22,test,1,"""","""","""","""","""","""","""","2020-11-09 16:02:37",98.200.17.108,"Mozilla/5.0 (Windows NT 6.1; Win64; x64) AppleWebKit/537.36 (KHTML, like Gecko) Chrome/86.0.4240.183 Safari/537.36",WebKit,Chrome,86.0.4240.183,Windows,6.1
33,1,663.2599999720696,"<img src=""7C_10S_yellow6.jpg"" style=""width:500px;""></img>",76,html-keyboard-response,107,179696,0.0-3.0-0.0-1.22,test,1,23,1,7C_10S_yellow6.jpg,respond,squares,squares,true,"2020-11-09 16:02:37",98.200.17.108,"Mozilla/5.0 (Windows NT 6.1; Win64; x64) AppleWebKit/537.36 (KHTML, like Gecko) Chrome/86.0.4240.183 Safari/537.36",WebKit,Chrome,86.0.4240.183,Windows,6.1
33,1,null,reward-coin-drop.mp3,null,audio-keyboard-response,108,181199,0.0-3.0-0.0-2.22-0.22,test,1,"""","""","""",reward-feedback,"""","""","""","2020-11-09 16:02:37",98.200.17.108,"Mozilla/5.0 (Windows NT 6.1; Win64; x64) AppleWebKit/537.36 (KHTML, like Gecko) Chrome/86.0.4240.183 Safari/537.36",WebKit,Chrome,86.0.4240.183,Windows,6.1
33,1,null,"<p class=""fixation"">+</p>",null,html-keyboard-response,109,181702,0.0-3.0-0.0-0.23,test,1,"""","""","""","""","""","""","""","2020-11-09 16:02:37",98.200.17.108,"Mozilla/5.0 (Windows NT 6.1; Win64; x64) AppleWebKit/537.36 (KHTML, like Gecko) Chrome/86.0.4240.183 Safari/537.36",WebKit,Chrome,86.0.4240.183,Windows,6.1
33,1,675.5349999875762,"<img src=""7S_10C_yellow8.jpg"" style=""width:500px;""></img>",65,html-keyboard-response,110,182384,0.0-3.0-0.0-1.23,test,1,24,1,7S_10C_yellow8.jpg,respond,circles,circles,true,"2020-11-09 16:02:37",98.200.17.108,"Mozilla/5.0 (Windows NT 6.1; Win64; x64) AppleWebKit/537.36 (KHTML, like Gecko) Chrome/86.0.4240.183 Safari/537.36",WebKit,Chrome,86.0.4240.183,Windows,6.1
33,1,null,reward-coin-drop.mp3,null,audio-keyboard-response,111,183887,0.0-3.0-0.0-2.23-0.23,test,1,"""","""","""",reward-feedback,"""","""","""","2020-11-09 16:02:37",98.200.17.108,"Mozilla/5.0 (Windows NT 6.1; Win64; x64) AppleWebKit/537.36 (KHTML, like Gecko) Chrome/86.0.4240.183 Safari/537.36",WebKit,Chrome,86.0.4240.183,Windows,6.1
33,1,null,"<p class=""fixation"">+</p>",null,html-keyboard-response,112,184388,0.0-3.0-0.0-0.24,test,1,"""","""","""","""","""","""","""","2020-11-09 16:02:37",98.200.17.108,"Mozilla/5.0 (Windows NT 6.1; Win64; x64) AppleWebKit/537.36 (KHTML, like Gecko) Chrome/86.0.4240.183 Safari/537.36",WebKit,Chrome,86.0.4240.183,Windows,6.1
33,1,803.3299999951851,"<img src=""7C_10S_yellow6.jpg"" style=""width:500px;""></img>",76,html-keyboard-response,113,185193,0.0-3.0-0.0-1.24,test,1,25,0,7C_10S_yellow6.jpg,respond,squares,squares,true,"2020-11-09 16:02:37",98.200.17.108,"Mozilla/5.0 (Windows NT 6.1; Win64; x64) AppleWebKit/537.36 (KHTML, like Gecko) Chrome/86.0.4240.183 Safari/537.36",WebKit,Chrome,86.0.4240.183,Windows,6.1
33,1,null,reward-coin-drop.mp3,null,audio-keyboard-response,114,186700,0.0-3.0-0.0-2.24-0.24,test,1,"""","""","""",reward-feedback,"""","""","""","2020-11-09 16:02:37",98.200.17.108,"Mozilla/5.0 (Windows NT 6.1; Win64; x64) AppleWebKit/537.36 (KHTML, like Gecko) Chrome/86.0.4240.183 Safari/537.36",WebKit,Chrome,86.0.4240.183,Windows,6.1
33,1,null,"<p class=""fixation"">+</p>",null,html-keyboard-response,115,187202,0.0-3.0-0.0-0.25,test,1,"""","""","""","""","""","""","""","2020-11-09 16:02:37",98.200.17.108,"Mozilla/5.0 (Windows NT 6.1; Win64; x64) AppleWebKit/537.36 (KHTML, like Gecko) Chrome/86.0.4240.183 Safari/537.36",WebKit,Chrome,86.0.4240.183,Windows,6.1
33,1,901.9350000016857,"<img src=""7C_10S_yellow5.jpg"" style=""width:500px;""></img>",76,html-keyboard-response,116,188106,0.0-3.0-0.0-1.25,test,1,26,1,7C_10S_yellow5.jpg,respond,squares,squares,true,"2020-11-09 16:02:37",98.200.17.108,"Mozilla/5.0 (Windows NT 6.1; Win64; x64) AppleWebKit/537.36 (KHTML, like Gecko) Chrome/86.0.4240.183 Safari/537.36",WebKit,Chrome,86.0.4240.183,Windows,6.1
33,1,null,reward-coin-drop.mp3,null,audio-keyboard-response,117,189609,0.0-3.0-0.0-2.25-0.25,test,1,"""","""","""",reward-feedback,"""","""","""","2020-11-09 16:02:37",98.200.17.108,"Mozilla/5.0 (Windows NT 6.1; Win64; x64) AppleWebKit/537.36 (KHTML, like Gecko) Chrome/86.0.4240.183 Safari/537.36",WebKit,Chrome,86.0.4240.183,Windows,6.1
33,1,null,"<p class=""fixation"">+</p>",null,html-keyboard-response,118,190114,0.0-3.0-0.0-0.26,test,1,"""","""","""","""","""","""","""","2020-11-09 16:02:37",98.200.17.108,"Mozilla/5.0 (Windows NT 6.1; Win64; x64) AppleWebKit/537.36 (KHTML, like Gecko) Chrome/86.0.4240.183 Safari/537.36",WebKit,Chrome,86.0.4240.183,Windows,6.1
33,1,752.3249999794643,"<img src=""7C_10S_yellow5.jpg"" style=""width:500px;""></img>",65,html-keyboard-response,119,190869,0.0-3.0-0.0-1.26,test,1,27,1,7C_10S_yellow5.jpg,respond,squares,circles,false,"2020-11-09 16:02:37",98.200.17.108,"Mozilla/5.0 (Windows NT 6.1; Win64; x64) AppleWebKit/537.36 (KHTML, like Gecko) Chrome/86.0.4240.183 Safari/537.36",WebKit,Chrome,86.0.4240.183,Windows,6.1
33,1,null,"""",null,html-keyboard-response,120,192371,0.0-3.0-0.0-3.26-0.26,test,1,"""","""","""","""","""","""","""","2020-11-09 16:02:37",98.200.17.108,"Mozilla/5.0 (Windows NT 6.1; Win64; x64) AppleWebKit/537.36 (KHTML, like Gecko) Chrome/86.0.4240.183 Safari/537.36",WebKit,Chrome,86.0.4240.183,Windows,6.1
33,1,null,"<p class=""fixation"">+</p>",null,html-keyboard-response,121,192878,0.0-3.0-0.0-0.27,test,1,"""","""","""","""","""","""","""","2020-11-09 16:02:37",98.200.17.108,"Mozilla/5.0 (Windows NT 6.1; Win64; x64) AppleWebKit/537.36 (KHTML, like Gecko) Chrome/86.0.4240.183 Safari/537.36",WebKit,Chrome,86.0.4240.183,Windows,6.1
33,1,670.5299999739509,"<img src=""7S_10C_yellow9.jpg"" style=""width:500px;""></img>",65,html-keyboard-response,122,193551,0.0-3.0-0.0-1.27,test,1,28,0,7S_10C_yellow9.jpg,respond,circles,circles,true,"2020-11-09 16:02:37",98.200.17.108,"Mozilla/5.0 (Windows NT 6.1; Win64; x64) AppleWebKit/537.36 (KHTML, like Gecko) Chrome/86.0.4240.183 Safari/537.36",WebKit,Chrome,86.0.4240.183,Windows,6.1
33,1,null,"""",null,html-keyboard-response,123,195052,0.0-3.0-0.0-3.27-0.27,test,1,"""","""","""","""","""","""","""","2020-11-09 16:02:37",98.200.17.108,"Mozilla/5.0 (Windows NT 6.1; Win64; x64) AppleWebKit/537.36 (KHTML, like Gecko) Chrome/86.0.4240.183 Safari/537.36",WebKit,Chrome,86.0.4240.183,Windows,6.1
33,1,null,"<p class=""fixation"">+</p>",null,html-keyboard-response,124,195553,0.0-3.0-0.0-0.28,test,1,"""","""","""","""","""","""","""","2020-11-09 16:02:37",98.200.17.108,"Mozilla/5.0 (Windows NT 6.1; Win64; x64) AppleWebKit/537.36 (KHTML, like Gecko) Chrome/86.0.4240.183 Safari/537.36",WebKit,Chrome,86.0.4240.183,Windows,6.1
33,1,728.4900000086054,"<img src=""7C_10S_yellow4.jpg"" style=""width:500px;""></img>",76,html-keyboard-response,125,196289,0.0-3.0-0.0-1.28,test,1,29,0,7C_10S_yellow4.jpg,respond,squares,squares,true,"2020-11-09 16:02:37",98.200.17.108,"Mozilla/5.0 (Windows NT 6.1; Win64; x64) AppleWebKit/537.36 (KHTML, like Gecko) Chrome/86.0.4240.183 Safari/537.36",WebKit,Chrome,86.0.4240.183,Windows,6.1
33,1,null,reward-coin-drop.mp3,null,audio-keyboard-response,126,197791,0.0-3.0-0.0-2.28-0.28,test,1,"""","""","""",reward-feedback,"""","""","""","2020-11-09 16:02:37",98.200.17.108,"Mozilla/5.0 (Windows NT 6.1; Win64; x64) AppleWebKit/537.36 (KHTML, like Gecko) Chrome/86.0.4240.183 Safari/537.36",WebKit,Chrome,86.0.4240.183,Windows,6.1
33,1,null,"<p class=""fixation"">+</p>",null,html-keyboard-response,127,198293,0.0-3.0-0.0-0.29,test,1,"""","""","""","""","""","""","""","2020-11-09 16:02:37",98.200.17.108,"Mozilla/5.0 (Windows NT 6.1; Win64; x64) AppleWebKit/537.36 (KHTML, like Gecko) Chrome/86.0.4240.183 Safari/537.36",WebKit,Chrome,86.0.4240.183,Windows,6.1
33,1,584.3199999944773,"<img src=""7S_10C_yellow7.jpg"" style=""width:500px;""></img>",65,html-keyboard-response,128,198879,0.0-3.0-0.0-1.29,test,1,30,0,7S_10C_yellow7.jpg,respond,circles,circles,true,"2020-11-09 16:02:37",98.200.17.108,"Mozilla/5.0 (Windows NT 6.1; Win64; x64) AppleWebKit/537.36 (KHTML, like Gecko) Chrome/86.0.4240.183 Safari/537.36",WebKit,Chrome,86.0.4240.183,Windows,6.1
33,1,null,"""",null,html-keyboard-response,129,200386,0.0-3.0-0.0-3.29-0.29,test,1,"""","""","""","""","""","""","""","2020-11-09 16:02:37",98.200.17.108,"Mozilla/5.0 (Windows NT 6.1; Win64; x64) AppleWebKit/537.36 (KHTML, like Gecko) Chrome/86.0.4240.183 Safari/537.36",WebKit,Chrome,86.0.4240.183,Windows,6.1
33,1,null,"<p class=""fixation"">+</p>",null,html-keyboard-response,130,200887,0.0-3.0-0.0-0.30,test,1,"""","""","""","""","""","""","""","2020-11-09 16:02:37",98.200.17.108,"Mozilla/5.0 (Windows NT 6.1; Win64; x64) AppleWebKit/537.36 (KHTML, like Gecko) Chrome/86.0.4240.183 Safari/537.36",WebKit,Chrome,86.0.4240.183,Windows,6.1
33,1,689.4899999897461,"<img src=""7S_10C_yellow6.jpg"" style=""width:500px;""></img>",65,html-keyboard-response,131,201578,0.0-3.0-0.0-1.30,test,1,31,0,7S_10C_yellow6.jpg,respond,circles,circles,true,"2020-11-09 16:02:37",98.200.17.108,"Mozilla/5.0 (Windows NT 6.1; Win64; x64) AppleWebKit/537.36 (KHTML, like Gecko) Chrome/86.0.4240.183 Safari/537.36",WebKit,Chrome,86.0.4240.183,Windows,6.1
33,1,null,"""",null,html-keyboard-response,132,203080,0.0-3.0-0.0-3.30-0.30,test,1,"""","""","""","""","""","""","""","2020-11-09 16:02:37",98.200.17.108,"Mozilla/5.0 (Windows NT 6.1; Win64; x64) AppleWebKit/537.36 (KHTML, like Gecko) Chrome/86.0.4240.183 Safari/537.36",WebKit,Chrome,86.0.4240.183,Windows,6.1
33,1,null,"<p class=""fixation"">+</p>",null,html-keyboard-response,133,203586,0.0-3.0-0.0-0.31,test,1,"""","""","""","""","""","""","""","2020-11-09 16:02:37",98.200.17.108,"Mozilla/5.0 (Windows NT 6.1; Win64; x64) AppleWebKit/537.36 (KHTML, like Gecko) Chrome/86.0.4240.183 Safari/537.36",WebKit,Chrome,86.0.4240.183,Windows,6.1
33,1,611.2250000005588,"<img src=""7S_10C_yellow8.jpg"" style=""width:500px;""></img>",76,html-keyboard-response,134,204199,0.0-3.0-0.0-1.31,test,1,32,0,7S_10C_yellow8.jpg,respond,circles,squares,false,"2020-11-09 16:02:37",98.200.17.108,"Mozilla/5.0 (Windows NT 6.1; Win64; x64) AppleWebKit/537.36 (KHTML, like Gecko) Chrome/86.0.4240.183 Safari/537.36",WebKit,Chrome,86.0.4240.183,Windows,6.1
33,1,null,"""",null,html-keyboard-response,135,205700,0.0-3.0-0.0-3.31-0.31,test,1,"""","""","""","""","""","""","""","2020-11-09 16:02:37",98.200.17.108,"Mozilla/5.0 (Windows NT 6.1; Win64; x64) AppleWebKit/537.36 (KHTML, like Gecko) Chrome/86.0.4240.183 Safari/537.36",WebKit,Chrome,86.0.4240.183,Windows,6.1
33,1,null,"<p class=""fixation"">+</p>",null,html-keyboard-response,136,206202,0.0-3.0-0.0-0.32,test,1,"""","""","""","""","""","""","""","2020-11-09 16:02:37",98.200.17.108,"Mozilla/5.0 (Windows NT 6.1; Win64; x64) AppleWebKit/537.36 (KHTML, like Gecko) Chrome/86.0.4240.183 Safari/537.36",WebKit,Chrome,86.0.4240.183,Windows,6.1
33,1,602.6149999815971,"<img src=""7C_10S_yellow5.jpg"" style=""width:500px;""></img>",65,html-keyboard-response,137,206813,0.0-3.0-0.0-1.32,test,1,33,0,7C_10S_yellow5.jpg,respond,squares,circles,false,"2020-11-09 16:02:37",98.200.17.108,"Mozilla/5.0 (Windows NT 6.1; Win64; x64) AppleWebKit/537.36 (KHTML, like Gecko) Chrome/86.0.4240.183 Safari/537.36",WebKit,Chrome,86.0.4240.183,Windows,6.1
33,1,null,"""",null,html-keyboard-response,138,208314,0.0-3.0-0.0-3.32-0.32,test,1,"""","""","""","""","""","""","""","2020-11-09 16:02:37",98.200.17.108,"Mozilla/5.0 (Windows NT 6.1; Win64; x64) AppleWebKit/537.36 (KHTML, like Gecko) Chrome/86.0.4240.183 Safari/537.36",WebKit,Chrome,86.0.4240.183,Windows,6.1
33,1,null,"<p class=""fixation"">+</p>",null,html-keyboard-response,139,208816,0.0-3.0-0.0-0.33,test,1,"""","""","""","""","""","""","""","2020-11-09 16:02:37",98.200.17.108,"Mozilla/5.0 (Windows NT 6.1; Win64; x64) AppleWebKit/537.36 (KHTML, like Gecko) Chrome/86.0.4240.183 Safari/537.36",WebKit,Chrome,86.0.4240.183,Windows,6.1
33,1,666.365000011865,"<img src=""7C_10S_yellow5.jpg"" style=""width:500px;""></img>",65,html-keyboard-response,140,209483,0.0-3.0-0.0-1.33,test,1,34,1,7C_10S_yellow5.jpg,respond,squares,circles,false,"2020-11-09 16:02:37",98.200.17.108,"Mozilla/5.0 (Windows NT 6.1; Win64; x64) AppleWebKit/537.36 (KHTML, like Gecko) Chrome/86.0.4240.183 Safari/537.36",WebKit,Chrome,86.0.4240.183,Windows,6.1
33,1,null,"""",null,html-keyboard-response,141,210989,0.0-3.0-0.0-3.33-0.33,test,1,"""","""","""","""","""","""","""","2020-11-09 16:02:37",98.200.17.108,"Mozilla/5.0 (Windows NT 6.1; Win64; x64) AppleWebKit/537.36 (KHTML, like Gecko) Chrome/86.0.4240.183 Safari/537.36",WebKit,Chrome,86.0.4240.183,Windows,6.1
33,1,null,"<p class=""fixation"">+</p>",null,html-keyboard-response,142,211491,0.0-3.0-0.0-0.34,test,1,"""","""","""","""","""","""","""","2020-11-09 16:02:37",98.200.17.108,"Mozilla/5.0 (Windows NT 6.1; Win64; x64) AppleWebKit/537.36 (KHTML, like Gecko) Chrome/86.0.4240.183 Safari/537.36",WebKit,Chrome,86.0.4240.183,Windows,6.1
33,1,585.6650000205263,"<img src=""7S_10C_yellow10.jpg"" style=""width:500px;""></img>",65,html-keyboard-response,143,212079,0.0-3.0-0.0-1.34,test,1,35,0,7S_10C_yellow10.jpg,respond,circles,circles,true,"2020-11-09 16:02:37",98.200.17.108,"Mozilla/5.0 (Windows NT 6.1; Win64; x64) AppleWebKit/537.36 (KHTML, like Gecko) Chrome/86.0.4240.183 Safari/537.36",WebKit,Chrome,86.0.4240.183,Windows,6.1
33,1,null,"""",null,html-keyboard-response,144,213581,0.0-3.0-0.0-3.34-0.34,test,1,"""","""","""","""","""","""","""","2020-11-09 16:02:37",98.200.17.108,"Mozilla/5.0 (Windows NT 6.1; Win64; x64) AppleWebKit/537.36 (KHTML, like Gecko) Chrome/86.0.4240.183 Safari/537.36",WebKit,Chrome,86.0.4240.183,Windows,6.1
33,1,null,"<p class=""fixation"">+</p>",null,html-keyboard-response,145,214089,0.0-3.0-0.0-0.35,test,1,"""","""","""","""","""","""","""","2020-11-09 16:02:37",98.200.17.108,"Mozilla/5.0 (Windows NT 6.1; Win64; x64) AppleWebKit/537.36 (KHTML, like Gecko) Chrome/86.0.4240.183 Safari/537.36",WebKit,Chrome,86.0.4240.183,Windows,6.1
33,1,587.4199999962002,"<img src=""7S_10C_yellow9.jpg"" style=""width:500px;""></img>",65,html-keyboard-response,146,214679,0.0-3.0-0.0-1.35,test,1,36,1,7S_10C_yellow9.jpg,respond,circles,circles,true,"2020-11-09 16:02:37",98.200.17.108,"Mozilla/5.0 (Windows NT 6.1; Win64; x64) AppleWebKit/537.36 (KHTML, like Gecko) Chrome/86.0.4240.183 Safari/537.36",WebKit,Chrome,86.0.4240.183,Windows,6.1
33,1,null,reward-coin-drop.mp3,null,audio-keyboard-response,147,216182,0.0-3.0-0.0-2.35-0.35,test,1,"""","""","""",reward-feedback,"""","""","""","2020-11-09 16:02:37",98.200.17.108,"Mozilla/5.0 (Windows NT 6.1; Win64; x64) AppleWebKit/537.36 (KHTML, like Gecko) Chrome/86.0.4240.183 Safari/537.36",WebKit,Chrome,86.0.4240.183,Windows,6.1
33,1,null,"<p class=""fixation"">+</p>",null,html-keyboard-response,148,216684,0.0-3.0-0.0-0.36,test,1,"""","""","""","""","""","""","""","2020-11-09 16:02:37",98.200.17.108,"Mozilla/5.0 (Windows NT 6.1; Win64; x64) AppleWebKit/537.36 (KHTML, like Gecko) Chrome/86.0.4240.183 Safari/537.36",WebKit,Chrome,86.0.4240.183,Windows,6.1
33,1,820.7150000089314,"<img src=""7C_10S_yellow5.jpg"" style=""width:500px;""></img>",76,html-keyboard-response,149,217511,0.0-3.0-0.0-1.36,test,1,37,1,7C_10S_yellow5.jpg,respond,squares,squares,true,"2020-11-09 16:02:37",98.200.17.108,"Mozilla/5.0 (Windows NT 6.1; Win64; x64) AppleWebKit/537.36 (KHTML, like Gecko) Chrome/86.0.4240.183 Safari/537.36",WebKit,Chrome,86.0.4240.183,Windows,6.1
33,1,null,reward-coin-drop.mp3,null,audio-keyboard-response,150,219014,0.0-3.0-0.0-2.36-0.36,test,1,"""","""","""",reward-feedback,"""","""","""","2020-11-09 16:02:37",98.200.17.108,"Mozilla/5.0 (Windows NT 6.1; Win64; x64) AppleWebKit/537.36 (KHTML, like Gecko) Chrome/86.0.4240.183 Safari/537.36",WebKit,Chrome,86.0.4240.183,Windows,6.1
33,1,null,"<p class=""fixation"">+</p>",null,html-keyboard-response,151,219516,0.0-3.0-0.0-0.37,test,1,"""","""","""","""","""","""","""","2020-11-09 16:02:37",98.200.17.108,"Mozilla/5.0 (Windows NT 6.1; Win64; x64) AppleWebKit/537.36 (KHTML, like Gecko) Chrome/86.0.4240.183 Safari/537.36",WebKit,Chrome,86.0.4240.183,Windows,6.1
33,1,738.0799999809824,"<img src=""7C_10S_yellow6.jpg"" style=""width:500px;""></img>",76,html-keyboard-response,152,220256,0.0-3.0-0.0-1.37,test,1,38,0,7C_10S_yellow6.jpg,respond,squares,squares,true,"2020-11-09 16:02:37",98.200.17.108,"Mozilla/5.0 (Windows NT 6.1; Win64; x64) AppleWebKit/537.36 (KHTML, like Gecko) Chrome/86.0.4240.183 Safari/537.36",WebKit,Chrome,86.0.4240.183,Windows,6.1
33,1,null,reward-coin-drop.mp3,null,audio-keyboard-response,153,221765,0.0-3.0-0.0-2.37-0.37,test,1,"""","""","""",reward-feedback,"""","""","""","2020-11-09 16:02:37",98.200.17.108,"Mozilla/5.0 (Windows NT 6.1; Win64; x64) AppleWebKit/537.36 (KHTML, like Gecko) Chrome/86.0.4240.183 Safari/537.36",WebKit,Chrome,86.0.4240.183,Windows,6.1
33,1,null,"<p class=""fixation"">+</p>",null,html-keyboard-response,154,222267,0.0-3.0-0.0-0.38,test,1,"""","""","""","""","""","""","""","2020-11-09 16:02:37",98.200.17.108,"Mozilla/5.0 (Windows NT 6.1; Win64; x64) AppleWebKit/537.36 (KHTML, like Gecko) Chrome/86.0.4240.183 Safari/537.36",WebKit,Chrome,86.0.4240.183,Windows,6.1
33,1,546.9299999822397,"<img src=""7C_10S_yellow3.jpg"" style=""width:500px;""></img>",76,html-keyboard-response,155,222816,0.0-3.0-0.0-1.38,test,1,39,0,7C_10S_yellow3.jpg,respond,squares,squares,true,"2020-11-09 16:02:37",98.200.17.108,"Mozilla/5.0 (Windows NT 6.1; Win64; x64) AppleWebKit/537.36 (KHTML, like Gecko) Chrome/86.0.4240.183 Safari/537.36",WebKit,Chrome,86.0.4240.183,Windows,6.1
33,1,null,"""",null,html-keyboard-response,156,224318,0.0-3.0-0.0-3.38-0.38,test,1,"""","""","""","""","""","""","""","2020-11-09 16:02:37",98.200.17.108,"Mozilla/5.0 (Windows NT 6.1; Win64; x64) AppleWebKit/537.36 (KHTML, like Gecko) Chrome/86.0.4240.183 Safari/537.36",WebKit,Chrome,86.0.4240.183,Windows,6.1
33,1,null,"<p class=""fixation"">+</p>",null,html-keyboard-response,157,224824,0.0-3.0-0.0-0.39,test,1,"""","""","""","""","""","""","""","2020-11-09 16:02:37",98.200.17.108,"Mozilla/5.0 (Windows NT 6.1; Win64; x64) AppleWebKit/537.36 (KHTML, like Gecko) Chrome/86.0.4240.183 Safari/537.36",WebKit,Chrome,86.0.4240.183,Windows,6.1
33,1,746.9149999960791,"<img src=""7S_10C_yellow7.jpg"" style=""width:500px;""></img>",65,html-keyboard-response,158,225573,0.0-3.0-0.0-1.39,test,1,40,0,7S_10C_yellow7.jpg,respond,circles,circles,true,"2020-11-09 16:02:37",98.200.17.108,"Mozilla/5.0 (Windows NT 6.1; Win64; x64) AppleWebKit/537.36 (KHTML, like Gecko) Chrome/86.0.4240.183 Safari/537.36",WebKit,Chrome,86.0.4240.183,Windows,6.1
33,1,null,"""",null,html-keyboard-response,159,227075,0.0-3.0-0.0-3.39-0.39,test,1,"""","""","""","""","""","""","""","2020-11-09 16:02:37",98.200.17.108,"Mozilla/5.0 (Windows NT 6.1; Win64; x64) AppleWebKit/537.36 (KHTML, like Gecko) Chrome/86.0.4240.183 Safari/537.36",WebKit,Chrome,86.0.4240.183,Windows,6.1
33,1,null,"<p class=""fixation"">+</p>",null,html-keyboard-response,160,227576,0.0-3.0-0.0-0.40,test,1,"""","""","""","""","""","""","""","2020-11-09 16:02:37",98.200.17.108,"Mozilla/5.0 (Windows NT 6.1; Win64; x64) AppleWebKit/537.36 (KHTML, like Gecko) Chrome/86.0.4240.183 Safari/537.36",WebKit,Chrome,86.0.4240.183,Windows,6.1
33,1,761.3600000040606,"<img src=""7S_10C_yellow8.jpg"" style=""width:500px;""></img>",65,html-keyboard-response,161,228346,0.0-3.0-0.0-1.40,test,1,41,1,7S_10C_yellow8.jpg,respond,circles,circles,true,"2020-11-09 16:02:37",98.200.17.108,"Mozilla/5.0 (Windows NT 6.1; Win64; x64) AppleWebKit/537.36 (KHTML, like Gecko) Chrome/86.0.4240.183 Safari/537.36",WebKit,Chrome,86.0.4240.183,Windows,6.1
33,1,null,reward-coin-drop.mp3,null,audio-keyboard-response,162,229849,0.0-3.0-0.0-2.40-0.40,test,1,"""","""","""",reward-feedback,"""","""","""","2020-11-09 16:02:37",98.200.17.108,"Mozilla/5.0 (Windows NT 6.1; Win64; x64) AppleWebKit/537.36 (KHTML, like Gecko) Chrome/86.0.4240.183 Safari/537.36",WebKit,Chrome,86.0.4240.183,Windows,6.1
33,1,null,"<p class=""fixation"">+</p>",null,html-keyboard-response,163,230351,0.0-3.0-0.0-0.41,test,1,"""","""","""","""","""","""","""","2020-11-09 16:02:37",98.200.17.108,"Mozilla/5.0 (Windows NT 6.1; Win64; x64) AppleWebKit/537.36 (KHTML, like Gecko) Chrome/86.0.4240.183 Safari/537.36",WebKit,Chrome,86.0.4240.183,Windows,6.1
33,1,463.3599999942817,"<img src=""7S_10C_yellow6.jpg"" style=""width:500px;""></img>",76,html-keyboard-response,164,230817,0.0-3.0-0.0-1.41,test,1,42,0,7S_10C_yellow6.jpg,respond,circles,squares,false,"2020-11-09 16:02:37",98.200.17.108,"Mozilla/5.0 (Windows NT 6.1; Win64; x64) AppleWebKit/537.36 (KHTML, like Gecko) Chrome/86.0.4240.183 Safari/537.36",WebKit,Chrome,86.0.4240.183,Windows,6.1
33,1,null,"""",null,html-keyboard-response,165,232323,0.0-3.0-0.0-3.41-0.41,test,1,"""","""","""","""","""","""","""","2020-11-09 16:02:37",98.200.17.108,"Mozilla/5.0 (Windows NT 6.1; Win64; x64) AppleWebKit/537.36 (KHTML, like Gecko) Chrome/86.0.4240.183 Safari/537.36",WebKit,Chrome,86.0.4240.183,Windows,6.1
33,1,null,"<p class=""fixation"">+</p>",null,html-keyboard-response,166,232824,0.0-3.0-0.0-0.42,test,1,"""","""","""","""","""","""","""","2020-11-09 16:02:37",98.200.17.108,"Mozilla/5.0 (Windows NT 6.1; Win64; x64) AppleWebKit/537.36 (KHTML, like Gecko) Chrome/86.0.4240.183 Safari/537.36",WebKit,Chrome,86.0.4240.183,Windows,6.1
33,1,457.9899999953341,"<img src=""7C_10S_yellow6.jpg"" style=""width:500px;""></img>",76,html-keyboard-response,167,233283,0.0-3.0-0.0-1.42,test,1,43,0,7C_10S_yellow6.jpg,respond,squares,squares,true,"2020-11-09 16:02:37",98.200.17.108,"Mozilla/5.0 (Windows NT 6.1; Win64; x64) AppleWebKit/537.36 (KHTML, like Gecko) Chrome/86.0.4240.183 Safari/537.36",WebKit,Chrome,86.0.4240.183,Windows,6.1
33,1,null,"""",null,html-keyboard-response,168,234786,0.0-3.0-0.0-3.42-0.42,test,1,"""","""","""","""","""","""","""","2020-11-09 16:02:37",98.200.17.108,"Mozilla/5.0 (Windows NT 6.1; Win64; x64) AppleWebKit/537.36 (KHTML, like Gecko) Chrome/86.0.4240.183 Safari/537.36",WebKit,Chrome,86.0.4240.183,Windows,6.1
33,1,null,"<p class=""fixation"">+</p>",null,html-keyboard-response,169,235292,0.0-3.0-0.0-0.43,test,1,"""","""","""","""","""","""","""","2020-11-09 16:02:37",98.200.17.108,"Mozilla/5.0 (Windows NT 6.1; Win64; x64) AppleWebKit/537.36 (KHTML, like Gecko) Chrome/86.0.4240.183 Safari/537.36",WebKit,Chrome,86.0.4240.183,Windows,6.1
33,1,574.1950000228826,"<img src=""7C_10S_yellow3.jpg"" style=""width:500px;""></img>",65,html-keyboard-response,170,235868,0.0-3.0-0.0-1.43,test,1,44,1,7C_10S_yellow3.jpg,respond,squares,circles,false,"2020-11-09 16:02:37",98.200.17.108,"Mozilla/5.0 (Windows NT 6.1; Win64; x64) AppleWebKit/537.36 (KHTML, like Gecko) Chrome/86.0.4240.183 Safari/537.36",WebKit,Chrome,86.0.4240.183,Windows,6.1
33,1,null,"""",null,html-keyboard-response,171,237369,0.0-3.0-0.0-3.43-0.43,test,1,"""","""","""","""","""","""","""","2020-11-09 16:02:37",98.200.17.108,"Mozilla/5.0 (Windows NT 6.1; Win64; x64) AppleWebKit/537.36 (KHTML, like Gecko) Chrome/86.0.4240.183 Safari/537.36",WebKit,Chrome,86.0.4240.183,Windows,6.1
33,1,null,"<p class=""fixation"">+</p>",null,html-keyboard-response,172,237870,0.0-3.0-0.0-0.44,test,1,"""","""","""","""","""","""","""","2020-11-09 16:02:37",98.200.17.108,"Mozilla/5.0 (Windows NT 6.1; Win64; x64) AppleWebKit/537.36 (KHTML, like Gecko) Chrome/86.0.4240.183 Safari/537.36",WebKit,Chrome,86.0.4240.183,Windows,6.1
33,1,589.8799999849871,"<img src=""7C_10S_yellow5.jpg"" style=""width:500px;""></img>",65,html-keyboard-response,173,238470,0.0-3.0-0.0-1.44,test,1,45,1,7C_10S_yellow5.jpg,respond,squares,circles,false,"2020-11-09 16:02:37",98.200.17.108,"Mozilla/5.0 (Windows NT 6.1; Win64; x64) AppleWebKit/537.36 (KHTML, like Gecko) Chrome/86.0.4240.183 Safari/537.36",WebKit,Chrome,86.0.4240.183,Windows,6.1
33,1,null,"""",null,html-keyboard-response,174,239973,0.0-3.0-0.0-3.44-0.44,test,1,"""","""","""","""","""","""","""","2020-11-09 16:02:37",98.200.17.108,"Mozilla/5.0 (Windows NT 6.1; Win64; x64) AppleWebKit/537.36 (KHTML, like Gecko) Chrome/86.0.4240.183 Safari/537.36",WebKit,Chrome,86.0.4240.183,Windows,6.1
33,1,null,"<p class=""fixation"">+</p>",null,html-keyboard-response,175,240476,0.0-3.0-0.0-0.45,test,1,"""","""","""","""","""","""","""","2020-11-09 16:02:37",98.200.17.108,"Mozilla/5.0 (Windows NT 6.1; Win64; x64) AppleWebKit/537.36 (KHTML, like Gecko) Chrome/86.0.4240.183 Safari/537.36",WebKit,Chrome,86.0.4240.183,Windows,6.1
33,1,704.3549999943934,"<img src=""7S_10C_yellow10.jpg"" style=""width:500px;""></img>",65,html-keyboard-response,176,241182,0.0-3.0-0.0-1.45,test,1,46,0,7S_10C_yellow10.jpg,respond,circles,circles,true,"2020-11-09 16:02:37",98.200.17.108,"Mozilla/5.0 (Windows NT 6.1; Win64; x64) AppleWebKit/537.36 (KHTML, like Gecko) Chrome/86.0.4240.183 Safari/537.36",WebKit,Chrome,86.0.4240.183,Windows,6.1
33,1,null,"""",null,html-keyboard-response,177,242688,0.0-3.0-0.0-3.45-0.45,test,1,"""","""","""","""","""","""","""","2020-11-09 16:02:37",98.200.17.108,"Mozilla/5.0 (Windows NT 6.1; Win64; x64) AppleWebKit/537.36 (KHTML, like Gecko) Chrome/86.0.4240.183 Safari/537.36",WebKit,Chrome,86.0.4240.183,Windows,6.1
33,1,null,"<p class=""fixation"">+</p>",null,html-keyboard-response,178,243189,0.0-3.0-0.0-0.46,test,1,"""","""","""","""","""","""","""","2020-11-09 16:02:37",98.200.17.108,"Mozilla/5.0 (Windows NT 6.1; Win64; x64) AppleWebKit/537.36 (KHTML, like Gecko) Chrome/86.0.4240.183 Safari/537.36",WebKit,Chrome,86.0.4240.183,Windows,6.1
33,1,447.35500001115724,"<img src=""7C_10S_yellow3.jpg"" style=""width:500px;""></img>",76,html-keyboard-response,179,243639,0.0-3.0-0.0-1.46,test,1,47,1,7C_10S_yellow3.jpg,respond,squares,squares,true,"2020-11-09 16:02:37",98.200.17.108,"Mozilla/5.0 (Windows NT 6.1; Win64; x64) AppleWebKit/537.36 (KHTML, like Gecko) Chrome/86.0.4240.183 Safari/537.36",WebKit,Chrome,86.0.4240.183,Windows,6.1
33,1,null,reward-coin-drop.mp3,null,audio-keyboard-response,180,245141,0.0-3.0-0.0-2.46-0.46,test,1,"""","""","""",reward-feedback,"""","""","""","2020-11-09 16:02:37",98.200.17.108,"Mozilla/5.0 (Windows NT 6.1; Win64; x64) AppleWebKit/537.36 (KHTML, like Gecko) Chrome/86.0.4240.183 Safari/537.36",WebKit,Chrome,86.0.4240.183,Windows,6.1
33,1,null,"<p class=""fixation"">+</p>",null,html-keyboard-response,181,245648,0.0-3.0-0.0-0.47,test,1,"""","""","""","""","""","""","""","2020-11-09 16:02:37",98.200.17.108,"Mozilla/5.0 (Windows NT 6.1; Win64; x64) AppleWebKit/537.36 (KHTML, like Gecko) Chrome/86.0.4240.183 Safari/537.36",WebKit,Chrome,86.0.4240.183,Windows,6.1
33,1,735.5200000165496,"<img src=""7C_10S_yellow5.jpg"" style=""width:500px;""></img>",65,html-keyboard-response,182,246385,0.0-3.0-0.0-1.47,test,1,48,0,7C_10S_yellow5.jpg,respond,squares,circles,false,"2020-11-09 16:02:37",98.200.17.108,"Mozilla/5.0 (Windows NT 6.1; Win64; x64) AppleWebKit/537.36 (KHTML, like Gecko) Chrome/86.0.4240.183 Safari/537.36",WebKit,Chrome,86.0.4240.183,Windows,6.1
33,1,null,"""",null,html-keyboard-response,183,247887,0.0-3.0-0.0-3.47-0.47,test,1,"""","""","""","""","""","""","""","2020-11-09 16:02:37",98.200.17.108,"Mozilla/5.0 (Windows NT 6.1; Win64; x64) AppleWebKit/537.36 (KHTML, like Gecko) Chrome/86.0.4240.183 Safari/537.36",WebKit,Chrome,86.0.4240.183,Windows,6.1
33,1,null,"<p class=""fixation"">+</p>",null,html-keyboard-response,184,248388,0.0-3.0-0.0-0.48,test,1,"""","""","""","""","""","""","""","2020-11-09 16:02:37",98.200.17.108,"Mozilla/5.0 (Windows NT 6.1; Win64; x64) AppleWebKit/537.36 (KHTML, like Gecko) Chrome/86.0.4240.183 Safari/537.36",WebKit,Chrome,86.0.4240.183,Windows,6.1
33,1,667.4950000015087,"<img src=""7S_10C_yellow9.jpg"" style=""width:500px;""></img>",65,html-keyboard-response,185,249062,0.0-3.0-0.0-1.48,test,1,49,0,7S_10C_yellow9.jpg,respond,circles,circles,true,"2020-11-09 16:02:37",98.200.17.108,"Mozilla/5.0 (Windows NT 6.1; Win64; x64) AppleWebKit/537.36 (KHTML, like Gecko) Chrome/86.0.4240.183 Safari/537.36",WebKit,Chrome,86.0.4240.183,Windows,6.1
33,1,null,"""",null,html-keyboard-response,186,250563,0.0-3.0-0.0-3.48-0.48,test,1,"""","""","""","""","""","""","""","2020-11-09 16:02:37",98.200.17.108,"Mozilla/5.0 (Windows NT 6.1; Win64; x64) AppleWebKit/537.36 (KHTML, like Gecko) Chrome/86.0.4240.183 Safari/537.36",WebKit,Chrome,86.0.4240.183,Windows,6.1
33,1,null,"<p class=""fixation"">+</p>",null,html-keyboard-response,187,251064,0.0-3.0-0.0-0.49,test,1,"""","""","""","""","""","""","""","2020-11-09 16:02:37",98.200.17.108,"Mozilla/5.0 (Windows NT 6.1; Win64; x64) AppleWebKit/537.36 (KHTML, like Gecko) Chrome/86.0.4240.183 Safari/537.36",WebKit,Chrome,86.0.4240.183,Windows,6.1
33,1,466.8999999994412,"<img src=""7C_10S_yellow6.jpg"" style=""width:500px;""></img>",76,html-keyboard-response,188,251532,0.0-3.0-0.0-1.49,test,1,50,1,7C_10S_yellow6.jpg,respond,squares,squares,true,"2020-11-09 16:02:37",98.200.17.108,"Mozilla/5.0 (Windows NT 6.1; Win64; x64) AppleWebKit/537.36 (KHTML, like Gecko) Chrome/86.0.4240.183 Safari/537.36",WebKit,Chrome,86.0.4240.183,Windows,6.1
33,1,null,reward-coin-drop.mp3,null,audio-keyboard-response,189,253042,0.0-3.0-0.0-2.49-0.49,test,1,"""","""","""",reward-feedback,"""","""","""","2020-11-09 16:02:37",98.200.17.108,"Mozilla/5.0 (Windows NT 6.1; Win64; x64) AppleWebKit/537.36 (KHTML, like Gecko) Chrome/86.0.4240.183 Safari/537.36",WebKit,Chrome,86.0.4240.183,Windows,6.1
33,1,null,"<p class=""fixation"">+</p>",null,html-keyboard-response,190,253544,0.0-3.0-0.0-0.50,test,1,"""","""","""","""","""","""","""","2020-11-09 16:02:37",98.200.17.108,"Mozilla/5.0 (Windows NT 6.1; Win64; x64) AppleWebKit/537.36 (KHTML, like Gecko) Chrome/86.0.4240.183 Safari/537.36",WebKit,Chrome,86.0.4240.183,Windows,6.1
33,1,899.2849999922328,"<img src=""7C_10S_yellow4.jpg"" style=""width:500px;""></img>",76,html-keyboard-response,191,254445,0.0-3.0-0.0-1.50,test,1,51,0,7C_10S_yellow4.jpg,respond,squares,squares,true,"2020-11-09 16:02:37",98.200.17.108,"Mozilla/5.0 (Windows NT 6.1; Win64; x64) AppleWebKit/537.36 (KHTML, like Gecko) Chrome/86.0.4240.183 Safari/537.36",WebKit,Chrome,86.0.4240.183,Windows,6.1
33,1,null,reward-coin-drop.mp3,null,audio-keyboard-response,192,255953,0.0-3.0-0.0-2.50-0.50,test,1,"""","""","""",reward-feedback,"""","""","""","2020-11-09 16:02:37",98.200.17.108,"Mozilla/5.0 (Windows NT 6.1; Win64; x64) AppleWebKit/537.36 (KHTML, like Gecko) Chrome/86.0.4240.183 Safari/537.36",WebKit,Chrome,86.0.4240.183,Windows,6.1
33,1,null,"<p class=""fixation"">+</p>",null,html-keyboard-response,193,256454,0.0-3.0-0.0-0.51,test,1,"""","""","""","""","""","""","""","2020-11-09 16:02:37",98.200.17.108,"Mozilla/5.0 (Windows NT 6.1; Win64; x64) AppleWebKit/537.36 (KHTML, like Gecko) Chrome/86.0.4240.183 Safari/537.36",WebKit,Chrome,86.0.4240.183,Windows,6.1
33,1,522.434999991674,"<img src=""7S_10C_yellow10.jpg"" style=""width:500px;""></img>",65,html-keyboard-response,194,256978,0.0-3.0-0.0-1.51,test,1,52,0,7S_10C_yellow10.jpg,respond,circles,circles,true,"2020-11-09 16:02:37",98.200.17.108,"Mozilla/5.0 (Windows NT 6.1; Win64; x64) AppleWebKit/537.36 (KHTML, like Gecko) Chrome/86.0.4240.183 Safari/537.36",WebKit,Chrome,86.0.4240.183,Windows,6.1
33,1,null,"""",null,html-keyboard-response,195,258480,0.0-3.0-0.0-3.51-0.51,test,1,"""","""","""","""","""","""","""","2020-11-09 16:02:37",98.200.17.108,"Mozilla/5.0 (Windows NT 6.1; Win64; x64) AppleWebKit/537.36 (KHTML, like Gecko) Chrome/86.0.4240.183 Safari/537.36",WebKit,Chrome,86.0.4240.183,Windows,6.1
33,1,null,"<p class=""fixation"">+</p>",null,html-keyboard-response,196,258986,0.0-3.0-0.0-0.52,test,1,"""","""","""","""","""","""","""","2020-11-09 16:02:37",98.200.17.108,"Mozilla/5.0 (Windows NT 6.1; Win64; x64) AppleWebKit/537.36 (KHTML, like Gecko) Chrome/86.0.4240.183 Safari/537.36",WebKit,Chrome,86.0.4240.183,Windows,6.1
33,1,554.9300000129733,"<img src=""7C_10S_yellow5.jpg"" style=""width:500px;""></img>",76,html-keyboard-response,197,259543,0.0-3.0-0.0-1.52,test,1,53,1,7C_10S_yellow5.jpg,respond,squares,squares,true,"2020-11-09 16:02:37",98.200.17.108,"Mozilla/5.0 (Windows NT 6.1; Win64; x64) AppleWebKit/537.36 (KHTML, like Gecko) Chrome/86.0.4240.183 Safari/537.36",WebKit,Chrome,86.0.4240.183,Windows,6.1
33,1,null,reward-coin-drop.mp3,null,audio-keyboard-response,198,261046,0.0-3.0-0.0-2.52-0.52,test,1,"""","""","""",reward-feedback,"""","""","""","2020-11-09 16:02:37",98.200.17.108,"Mozilla/5.0 (Windows NT 6.1; Win64; x64) AppleWebKit/537.36 (KHTML, like Gecko) Chrome/86.0.4240.183 Safari/537.36",WebKit,Chrome,86.0.4240.183,Windows,6.1
33,1,null,"<p class=""fixation"">+</p>",null,html-keyboard-response,199,261548,0.0-3.0-0.0-0.53,test,1,"""","""","""","""","""","""","""","2020-11-09 16:02:37",98.200.17.108,"Mozilla/5.0 (Windows NT 6.1; Win64; x64) AppleWebKit/537.36 (KHTML, like Gecko) Chrome/86.0.4240.183 Safari/537.36",WebKit,Chrome,86.0.4240.183,Windows,6.1
33,1,748.9000000059605,"<img src=""7S_10C_yellow8.jpg"" style=""width:500px;""></img>",65,html-keyboard-response,200,262305,0.0-3.0-0.0-1.53,test,1,54,0,7S_10C_yellow8.jpg,respond,circles,circles,true,"2020-11-09 16:02:37",98.200.17.108,"Mozilla/5.0 (Windows NT 6.1; Win64; x64) AppleWebKit/537.36 (KHTML, like Gecko) Chrome/86.0.4240.183 Safari/537.36",WebKit,Chrome,86.0.4240.183,Windows,6.1
33,1,null,"""",null,html-keyboard-response,201,263807,0.0-3.0-0.0-3.53-0.53,test,1,"""","""","""","""","""","""","""","2020-11-09 16:02:37",98.200.17.108,"Mozilla/5.0 (Windows NT 6.1; Win64; x64) AppleWebKit/537.36 (KHTML, like Gecko) Chrome/86.0.4240.183 Safari/537.36",WebKit,Chrome,86.0.4240.183,Windows,6.1
33,1,null,"<p class=""fixation"">+</p>",null,html-keyboard-response,202,264308,0.0-3.0-0.0-0.54,test,1,"""","""","""","""","""","""","""","2020-11-09 16:02:37",98.200.17.108,"Mozilla/5.0 (Windows NT 6.1; Win64; x64) AppleWebKit/537.36 (KHTML, like Gecko) Chrome/86.0.4240.183 Safari/537.36",WebKit,Chrome,86.0.4240.183,Windows,6.1
33,1,733.7100000004284,"<img src=""7C_10S_yellow3.jpg"" style=""width:500px;""></img>",76,html-keyboard-response,203,265043,0.0-3.0-0.0-1.54,test,1,55,1,7C_10S_yellow3.jpg,respond,squares,squares,true,"2020-11-09 16:02:37",98.200.17.108,"Mozilla/5.0 (Windows NT 6.1; Win64; x64) AppleWebKit/537.36 (KHTML, like Gecko) Chrome/86.0.4240.183 Safari/537.36",WebKit,Chrome,86.0.4240.183,Windows,6.1
33,1,null,reward-coin-drop.mp3,null,audio-keyboard-response,204,266552,0.0-3.0-0.0-2.54-0.54,test,1,"""","""","""",reward-feedback,"""","""","""","2020-11-09 16:02:37",98.200.17.108,"Mozilla/5.0 (Windows NT 6.1; Win64; x64) AppleWebKit/537.36 (KHTML, like Gecko) Chrome/86.0.4240.183 Safari/537.36",WebKit,Chrome,86.0.4240.183,Windows,6.1
33,1,null,"<p class=""fixation"">+</p>",null,html-keyboard-response,205,267053,0.0-3.0-0.0-0.55,test,1,"""","""","""","""","""","""","""","2020-11-09 16:02:37",98.200.17.108,"Mozilla/5.0 (Windows NT 6.1; Win64; x64) AppleWebKit/537.36 (KHTML, like Gecko) Chrome/86.0.4240.183 Safari/537.36",WebKit,Chrome,86.0.4240.183,Windows,6.1
33,1,787.7399999997579,"<img src=""7S_10C_yellow7.jpg"" style=""width:500px;""></img>",65,html-keyboard-response,206,267842,0.0-3.0-0.0-1.55,test,1,56,0,7S_10C_yellow7.jpg,respond,circles,circles,true,"2020-11-09 16:02:37",98.200.17.108,"Mozilla/5.0 (Windows NT 6.1; Win64; x64) AppleWebKit/537.36 (KHTML, like Gecko) Chrome/86.0.4240.183 Safari/537.36",WebKit,Chrome,86.0.4240.183,Windows,6.1
33,1,null,"""",null,html-keyboard-response,207,269344,0.0-3.0-0.0-3.55-0.55,test,1,"""","""","""","""","""","""","""","2020-11-09 16:02:37",98.200.17.108,"Mozilla/5.0 (Windows NT 6.1; Win64; x64) AppleWebKit/537.36 (KHTML, like Gecko) Chrome/86.0.4240.183 Safari/537.36",WebKit,Chrome,86.0.4240.183,Windows,6.1
33,1,null,"<p class=""fixation"">+</p>",null,html-keyboard-response,208,269851,0.0-3.0-0.0-0.56,test,1,"""","""","""","""","""","""","""","2020-11-09 16:02:37",98.200.17.108,"Mozilla/5.0 (Windows NT 6.1; Win64; x64) AppleWebKit/537.36 (KHTML, like Gecko) Chrome/86.0.4240.183 Safari/537.36",WebKit,Chrome,86.0.4240.183,Windows,6.1
33,1,714.3099999811966,"<img src=""7S_10C_yellow10.jpg"" style=""width:500px;""></img>",65,html-keyboard-response,209,270568,0.0-3.0-0.0-1.56,test,1,57,0,7S_10C_yellow10.jpg,respond,circles,circles,true,"2020-11-09 16:02:37",98.200.17.108,"Mozilla/5.0 (Windows NT 6.1; Win64; x64) AppleWebKit/537.36 (KHTML, like Gecko) Chrome/86.0.4240.183 Safari/537.36",WebKit,Chrome,86.0.4240.183,Windows,6.1
33,1,null,"""",null,html-keyboard-response,210,272070,0.0-3.0-0.0-3.56-0.56,test,1,"""","""","""","""","""","""","""","2020-11-09 16:02:37",98.200.17.108,"Mozilla/5.0 (Windows NT 6.1; Win64; x64) AppleWebKit/537.36 (KHTML, like Gecko) Chrome/86.0.4240.183 Safari/537.36",WebKit,Chrome,86.0.4240.183,Windows,6.1
33,1,null,"<p class=""fixation"">+</p>",null,html-keyboard-response,211,272572,0.0-3.0-0.0-0.57,test,1,"""","""","""","""","""","""","""","2020-11-09 16:02:37",98.200.17.108,"Mozilla/5.0 (Windows NT 6.1; Win64; x64) AppleWebKit/537.36 (KHTML, like Gecko) Chrome/86.0.4240.183 Safari/537.36",WebKit,Chrome,86.0.4240.183,Windows,6.1
33,1,594.1499999898952,"<img src=""7S_10C_yellow9.jpg"" style=""width:500px;""></img>",65,html-keyboard-response,212,273174,0.0-3.0-0.0-1.57,test,1,58,0,7S_10C_yellow9.jpg,respond,circles,circles,true,"2020-11-09 16:02:37",98.200.17.108,"Mozilla/5.0 (Windows NT 6.1; Win64; x64) AppleWebKit/537.36 (KHTML, like Gecko) Chrome/86.0.4240.183 Safari/537.36",WebKit,Chrome,86.0.4240.183,Windows,6.1
33,1,null,"""",null,html-keyboard-response,213,274676,0.0-3.0-0.0-3.57-0.57,test,1,"""","""","""","""","""","""","""","2020-11-09 16:02:37",98.200.17.108,"Mozilla/5.0 (Windows NT 6.1; Win64; x64) AppleWebKit/537.36 (KHTML, like Gecko) Chrome/86.0.4240.183 Safari/537.36",WebKit,Chrome,86.0.4240.183,Windows,6.1
33,1,null,"<p class=""fixation"">+</p>",null,html-keyboard-response,214,275178,0.0-3.0-0.0-0.58,test,1,"""","""","""","""","""","""","""","2020-11-09 16:02:37",98.200.17.108,"Mozilla/5.0 (Windows NT 6.1; Win64; x64) AppleWebKit/537.36 (KHTML, like Gecko) Chrome/86.0.4240.183 Safari/537.36",WebKit,Chrome,86.0.4240.183,Windows,6.1
33,1,623.5149999847636,"<img src=""7C_10S_yellow3.jpg"" style=""width:500px;""></img>",76,html-keyboard-response,215,275803,0.0-3.0-0.0-1.58,test,1,59,1,7C_10S_yellow3.jpg,respond,squares,squares,true,"2020-11-09 16:02:37",98.200.17.108,"Mozilla/5.0 (Windows NT 6.1; Win64; x64) AppleWebKit/537.36 (KHTML, like Gecko) Chrome/86.0.4240.183 Safari/537.36",WebKit,Chrome,86.0.4240.183,Windows,6.1
33,1,null,reward-coin-drop.mp3,null,audio-keyboard-response,216,277315,0.0-3.0-0.0-2.58-0.58,test,1,"""","""","""",reward-feedback,"""","""","""","2020-11-09 16:02:37",98.200.17.108,"Mozilla/5.0 (Windows NT 6.1; Win64; x64) AppleWebKit/537.36 (KHTML, like Gecko) Chrome/86.0.4240.183 Safari/537.36",WebKit,Chrome,86.0.4240.183,Windows,6.1
33,1,null,"<p class=""fixation"">+</p>",null,html-keyboard-response,217,277817,0.0-3.0-0.0-0.59,test,1,"""","""","""","""","""","""","""","2020-11-09 16:02:37",98.200.17.108,"Mozilla/5.0 (Windows NT 6.1; Win64; x64) AppleWebKit/537.36 (KHTML, like Gecko) Chrome/86.0.4240.183 Safari/537.36",WebKit,Chrome,86.0.4240.183,Windows,6.1
33,1,565.7850000134204,"<img src=""7S_10C_yellow9.jpg"" style=""width:500px;""></img>",65,html-keyboard-response,218,278385,0.0-3.0-0.0-1.59,test,1,60,0,7S_10C_yellow9.jpg,respond,circles,circles,true,"2020-11-09 16:02:37",98.200.17.108,"Mozilla/5.0 (Windows NT 6.1; Win64; x64) AppleWebKit/537.36 (KHTML, like Gecko) Chrome/86.0.4240.183 Safari/537.36",WebKit,Chrome,86.0.4240.183,Windows,6.1
33,1,null,"""",null,html-keyboard-response,219,279887,0.0-3.0-0.0-3.59-0.59,test,1,"""","""","""","""","""","""","""","2020-11-09 16:02:37",98.200.17.108,"Mozilla/5.0 (Windows NT 6.1; Win64; x64) AppleWebKit/537.36 (KHTML, like Gecko) Chrome/86.0.4240.183 Safari/537.36",WebKit,Chrome,86.0.4240.183,Windows,6.1
33,1,null,"<p class=""fixation"">+</p>",null,html-keyboard-response,220,280396,0.0-3.0-0.0-0.60,test,1,"""","""","""","""","""","""","""","2020-11-09 16:02:37",98.200.17.108,"Mozilla/5.0 (Windows NT 6.1; Win64; x64) AppleWebKit/537.36 (KHTML, like Gecko) Chrome/86.0.4240.183 Safari/537.36",WebKit,Chrome,86.0.4240.183,Windows,6.1
33,1,758.6049999808893,"<img src=""7S_10C_yellow7.jpg"" style=""width:500px;""></img>",76,html-keyboard-response,221,281156,0.0-3.0-0.0-1.60,test,1,61,0,7S_10C_yellow7.jpg,respond,circles,squares,false,"2020-11-09 16:02:37",98.200.17.108,"Mozilla/5.0 (Windows NT 6.1; Win64; x64) AppleWebKit/537.36 (KHTML, like Gecko) Chrome/86.0.4240.183 Safari/537.36",WebKit,Chrome,86.0.4240.183,Windows,6.1
33,1,null,"""",null,html-keyboard-response,222,282658,0.0-3.0-0.0-3.60-0.60,test,1,"""","""","""","""","""","""","""","2020-11-09 16:02:37",98.200.17.108,"Mozilla/5.0 (Windows NT 6.1; Win64; x64) AppleWebKit/537.36 (KHTML, like Gecko) Chrome/86.0.4240.183 Safari/537.36",WebKit,Chrome,86.0.4240.183,Windows,6.1
33,1,null,"<p class=""fixation"">+</p>",null,html-keyboard-response,223,283160,0.0-3.0-0.0-0.61,test,1,"""","""","""","""","""","""","""","2020-11-09 16:02:37",98.200.17.108,"Mozilla/5.0 (Windows NT 6.1; Win64; x64) AppleWebKit/537.36 (KHTML, like Gecko) Chrome/86.0.4240.183 Safari/537.36",WebKit,Chrome,86.0.4240.183,Windows,6.1
33,1,633.8399999949615,"<img src=""7S_10C_yellow6.jpg"" style=""width:500px;""></img>",65,html-keyboard-response,224,283801,0.0-3.0-0.0-1.61,test,1,62,0,7S_10C_yellow6.jpg,respond,circles,circles,true,"2020-11-09 16:02:37",98.200.17.108,"Mozilla/5.0 (Windows NT 6.1; Win64; x64) AppleWebKit/537.36 (KHTML, like Gecko) Chrome/86.0.4240.183 Safari/537.36",WebKit,Chrome,86.0.4240.183,Windows,6.1
33,1,null,"""",null,html-keyboard-response,225,285303,0.0-3.0-0.0-3.61-0.61,test,1,"""","""","""","""","""","""","""","2020-11-09 16:02:37",98.200.17.108,"Mozilla/5.0 (Windows NT 6.1; Win64; x64) AppleWebKit/537.36 (KHTML, like Gecko) Chrome/86.0.4240.183 Safari/537.36",WebKit,Chrome,86.0.4240.183,Windows,6.1
33,1,null,"<p class=""fixation"">+</p>",null,html-keyboard-response,226,285804,0.0-3.0-0.0-0.62,test,1,"""","""","""","""","""","""","""","2020-11-09 16:02:37",98.200.17.108,"Mozilla/5.0 (Windows NT 6.1; Win64; x64) AppleWebKit/537.36 (KHTML, like Gecko) Chrome/86.0.4240.183 Safari/537.36",WebKit,Chrome,86.0.4240.183,Windows,6.1
33,1,476.5250000054948,"<img src=""7C_10S_yellow6.jpg"" style=""width:500px;""></img>",76,html-keyboard-response,227,286285,0.0-3.0-0.0-1.62,test,1,63,0,7C_10S_yellow6.jpg,respond,squares,squares,true,"2020-11-09 16:02:37",98.200.17.108,"Mozilla/5.0 (Windows NT 6.1; Win64; x64) AppleWebKit/537.36 (KHTML, like Gecko) Chrome/86.0.4240.183 Safari/537.36",WebKit,Chrome,86.0.4240.183,Windows,6.1
33,1,null,reward-coin-drop.mp3,null,audio-keyboard-response,228,287795,0.0-3.0-0.0-2.62-0.62,test,1,"""","""","""",reward-feedback,"""","""","""","2020-11-09 16:02:37",98.200.17.108,"Mozilla/5.0 (Windows NT 6.1; Win64; x64) AppleWebKit/537.36 (KHTML, like Gecko) Chrome/86.0.4240.183 Safari/537.36",WebKit,Chrome,86.0.4240.183,Windows,6.1
33,1,null,"<p class=""fixation"">+</p>",null,html-keyboard-response,229,288296,0.0-3.0-0.0-0.63,test,1,"""","""","""","""","""","""","""","2020-11-09 16:02:37",98.200.17.108,"Mozilla/5.0 (Windows NT 6.1; Win64; x64) AppleWebKit/537.36 (KHTML, like Gecko) Chrome/86.0.4240.183 Safari/537.36",WebKit,Chrome,86.0.4240.183,Windows,6.1
33,1,562.8250000008848,"<img src=""7S_10C_yellow10.jpg"" style=""width:500px;""></img>",65,html-keyboard-response,230,288861,0.0-3.0-0.0-1.63,test,1,64,0,7S_10C_yellow10.jpg,respond,circles,circles,true,"2020-11-09 16:02:37",98.200.17.108,"Mozilla/5.0 (Windows NT 6.1; Win64; x64) AppleWebKit/537.36 (KHTML, like Gecko) Chrome/86.0.4240.183 Safari/537.36",WebKit,Chrome,86.0.4240.183,Windows,6.1
33,1,null,"""",null,html-keyboard-response,231,290363,0.0-3.0-0.0-3.63-0.63,test,1,"""","""","""","""","""","""","""","2020-11-09 16:02:37",98.200.17.108,"Mozilla/5.0 (Windows NT 6.1; Win64; x64) AppleWebKit/537.36 (KHTML, like Gecko) Chrome/86.0.4240.183 Safari/537.36",WebKit,Chrome,86.0.4240.183,Windows,6.1
33,1,null,"<p class=""fixation"">+</p>",null,html-keyboard-response,232,290871,0.0-3.0-0.0-0.64,test,1,"""","""","""","""","""","""","""","2020-11-09 16:02:37",98.200.17.108,"Mozilla/5.0 (Windows NT 6.1; Win64; x64) AppleWebKit/537.36 (KHTML, like Gecko) Chrome/86.0.4240.183 Safari/537.36",WebKit,Chrome,86.0.4240.183,Windows,6.1
33,1,648.4400000190362,"<img src=""7C_10S_yellow6.jpg"" style=""width:500px;""></img>",65,html-keyboard-response,233,291521,0.0-3.0-0.0-1.64,test,1,65,1,7C_10S_yellow6.jpg,respond,squares,circles,false,"2020-11-09 16:02:37",98.200.17.108,"Mozilla/5.0 (Windows NT 6.1; Win64; x64) AppleWebKit/537.36 (KHTML, like Gecko) Chrome/86.0.4240.183 Safari/537.36",WebKit,Chrome,86.0.4240.183,Windows,6.1
33,1,null,"""",null,html-keyboard-response,234,293023,0.0-3.0-0.0-3.64-0.64,test,1,"""","""","""","""","""","""","""","2020-11-09 16:02:37",98.200.17.108,"Mozilla/5.0 (Windows NT 6.1; Win64; x64) AppleWebKit/537.36 (KHTML, like Gecko) Chrome/86.0.4240.183 Safari/537.36",WebKit,Chrome,86.0.4240.183,Windows,6.1
33,1,null,"<p class=""fixation"">+</p>",null,html-keyboard-response,235,293524,0.0-3.0-0.0-0.65,test,1,"""","""","""","""","""","""","""","2020-11-09 16:02:37",98.200.17.108,"Mozilla/5.0 (Windows NT 6.1; Win64; x64) AppleWebKit/537.36 (KHTML, like Gecko) Chrome/86.0.4240.183 Safari/537.36",WebKit,Chrome,86.0.4240.183,Windows,6.1
33,1,717.5350000034086,"<img src=""7C_10S_yellow5.jpg"" style=""width:500px;""></img>",65,html-keyboard-response,236,294245,0.0-3.0-0.0-1.65,test,1,66,1,7C_10S_yellow5.jpg,respond,squares,circles,false,"2020-11-09 16:02:37",98.200.17.108,"Mozilla/5.0 (Windows NT 6.1; Win64; x64) AppleWebKit/537.36 (KHTML, like Gecko) Chrome/86.0.4240.183 Safari/537.36",WebKit,Chrome,86.0.4240.183,Windows,6.1
33,1,null,"""",null,html-keyboard-response,237,295752,0.0-3.0-0.0-3.65-0.65,test,1,"""","""","""","""","""","""","""","2020-11-09 16:02:37",98.200.17.108,"Mozilla/5.0 (Windows NT 6.1; Win64; x64) AppleWebKit/537.36 (KHTML, like Gecko) Chrome/86.0.4240.183 Safari/537.36",WebKit,Chrome,86.0.4240.183,Windows,6.1
33,1,null,"<p class=""fixation"">+</p>",null,html-keyboard-response,238,296253,0.0-3.0-0.0-0.66,test,1,"""","""","""","""","""","""","""","2020-11-09 16:02:37",98.200.17.108,"Mozilla/5.0 (Windows NT 6.1; Win64; x64) AppleWebKit/537.36 (KHTML, like Gecko) Chrome/86.0.4240.183 Safari/537.36",WebKit,Chrome,86.0.4240.183,Windows,6.1
33,1,582.3549999913666,"<img src=""7C_10S_yellow4.jpg"" style=""width:500px;""></img>",76,html-keyboard-response,239,296837,0.0-3.0-0.0-1.66,test,1,67,1,7C_10S_yellow4.jpg,respond,squares,squares,true,"2020-11-09 16:02:37",98.200.17.108,"Mozilla/5.0 (Windows NT 6.1; Win64; x64) AppleWebKit/537.36 (KHTML, like Gecko) Chrome/86.0.4240.183 Safari/537.36",WebKit,Chrome,86.0.4240.183,Windows,6.1
33,1,null,reward-coin-drop.mp3,null,audio-keyboard-response,240,298340,0.0-3.0-0.0-2.66-0.66,test,1,"""","""","""",reward-feedback,"""","""","""","2020-11-09 16:02:37",98.200.17.108,"Mozilla/5.0 (Windows NT 6.1; Win64; x64) AppleWebKit/537.36 (KHTML, like Gecko) Chrome/86.0.4240.183 Safari/537.36",WebKit,Chrome,86.0.4240.183,Windows,6.1
33,1,null,"<p class=""fixation"">+</p>",null,html-keyboard-response,241,298848,0.0-3.0-0.0-0.67,test,1,"""","""","""","""","""","""","""","2020-11-09 16:02:37",98.200.17.108,"Mozilla/5.0 (Windows NT 6.1; Win64; x64) AppleWebKit/537.36 (KHTML, like Gecko) Chrome/86.0.4240.183 Safari/537.36",WebKit,Chrome,86.0.4240.183,Windows,6.1
33,1,609.3649999820627,"<img src=""7S_10C_yellow8.jpg"" style=""width:500px;""></img>",65,html-keyboard-response,242,299460,0.0-3.0-0.0-1.67,test,1,68,0,7S_10C_yellow8.jpg,respond,circles,circles,true,"2020-11-09 16:02:37",98.200.17.108,"Mozilla/5.0 (Windows NT 6.1; Win64; x64) AppleWebKit/537.36 (KHTML, like Gecko) Chrome/86.0.4240.183 Safari/537.36",WebKit,Chrome,86.0.4240.183,Windows,6.1
33,1,null,"""",null,html-keyboard-response,243,300964,0.0-3.0-0.0-3.67-0.67,test,1,"""","""","""","""","""","""","""","2020-11-09 16:02:37",98.200.17.108,"Mozilla/5.0 (Windows NT 6.1; Win64; x64) AppleWebKit/537.36 (KHTML, like Gecko) Chrome/86.0.4240.183 Safari/537.36",WebKit,Chrome,86.0.4240.183,Windows,6.1
33,1,null,"<p class=""fixation"">+</p>",null,html-keyboard-response,244,301465,0.0-3.0-0.0-0.68,test,1,"""","""","""","""","""","""","""","2020-11-09 16:02:37",98.200.17.108,"Mozilla/5.0 (Windows NT 6.1; Win64; x64) AppleWebKit/537.36 (KHTML, like Gecko) Chrome/86.0.4240.183 Safari/537.36",WebKit,Chrome,86.0.4240.183,Windows,6.1
33,1,419.1599999903701,"<img src=""7C_10S_yellow6.jpg"" style=""width:500px;""></img>",76,html-keyboard-response,245,301893,0.0-3.0-0.0-1.68,test,1,69,0,7C_10S_yellow6.jpg,respond,squares,squares,true,"2020-11-09 16:02:37",98.200.17.108,"Mozilla/5.0 (Windows NT 6.1; Win64; x64) AppleWebKit/537.36 (KHTML, like Gecko) Chrome/86.0.4240.183 Safari/537.36",WebKit,Chrome,86.0.4240.183,Windows,6.1
33,1,null,reward-coin-drop.mp3,null,audio-keyboard-response,246,303395,0.0-3.0-0.0-2.68-0.68,test,1,"""","""","""",reward-feedback,"""","""","""","2020-11-09 16:02:37",98.200.17.108,"Mozilla/5.0 (Windows NT 6.1; Win64; x64) AppleWebKit/537.36 (KHTML, like Gecko) Chrome/86.0.4240.183 Safari/537.36",WebKit,Chrome,86.0.4240.183,Windows,6.1
33,1,null,"<p class=""fixation"">+</p>",null,html-keyboard-response,247,303897,0.0-3.0-0.0-0.69,test,1,"""","""","""","""","""","""","""","2020-11-09 16:02:37",98.200.17.108,"Mozilla/5.0 (Windows NT 6.1; Win64; x64) AppleWebKit/537.36 (KHTML, like Gecko) Chrome/86.0.4240.183 Safari/537.36",WebKit,Chrome,86.0.4240.183,Windows,6.1
33,1,507.65499999397434,"<img src=""7C_10S_yellow4.jpg"" style=""width:500px;""></img>",76,html-keyboard-response,248,304406,0.0-3.0-0.0-1.69,test,1,70,0,7C_10S_yellow4.jpg,respond,squares,squares,true,"2020-11-09 16:02:37",98.200.17.108,"Mozilla/5.0 (Windows NT 6.1; Win64; x64) AppleWebKit/537.36 (KHTML, like Gecko) Chrome/86.0.4240.183 Safari/537.36",WebKit,Chrome,86.0.4240.183,Windows,6.1
33,1,null,reward-coin-drop.mp3,null,audio-keyboard-response,249,305909,0.0-3.0-0.0-2.69-0.69,test,1,"""","""","""",reward-feedback,"""","""","""","2020-11-09 16:02:37",98.200.17.108,"Mozilla/5.0 (Windows NT 6.1; Win64; x64) AppleWebKit/537.36 (KHTML, like Gecko) Chrome/86.0.4240.183 Safari/537.36",WebKit,Chrome,86.0.4240.183,Windows,6.1
33,1,null,"<p class=""fixation"">+</p>",null,html-keyboard-response,250,306416,0.0-3.0-0.0-0.70,test,1,"""","""","""","""","""","""","""","2020-11-09 16:02:37",98.200.17.108,"Mozilla/5.0 (Windows NT 6.1; Win64; x64) AppleWebKit/537.36 (KHTML, like Gecko) Chrome/86.0.4240.183 Safari/537.36",WebKit,Chrome,86.0.4240.183,Windows,6.1
33,1,767.070000001695,"<img src=""7S_10C_yellow7.jpg"" style=""width:500px;""></img>",65,html-keyboard-response,251,307185,0.0-3.0-0.0-1.70,test,1,71,0,7S_10C_yellow7.jpg,respond,circles,circles,true,"2020-11-09 16:02:37",98.200.17.108,"Mozilla/5.0 (Windows NT 6.1; Win64; x64) AppleWebKit/537.36 (KHTML, like Gecko) Chrome/86.0.4240.183 Safari/537.36",WebKit,Chrome,86.0.4240.183,Windows,6.1
33,1,null,"""",null,html-keyboard-response,252,308687,0.0-3.0-0.0-3.70-0.70,test,1,"""","""","""","""","""","""","""","2020-11-09 16:02:37",98.200.17.108,"Mozilla/5.0 (Windows NT 6.1; Win64; x64) AppleWebKit/537.36 (KHTML, like Gecko) Chrome/86.0.4240.183 Safari/537.36",WebKit,Chrome,86.0.4240.183,Windows,6.1
33,1,null,"<p class=""fixation"">+</p>",null,html-keyboard-response,253,309188,0.0-3.0-0.0-0.71,test,1,"""","""","""","""","""","""","""","2020-11-09 16:02:37",98.200.17.108,"Mozilla/5.0 (Windows NT 6.1; Win64; x64) AppleWebKit/537.36 (KHTML, like Gecko) Chrome/86.0.4240.183 Safari/537.36",WebKit,Chrome,86.0.4240.183,Windows,6.1
33,1,522.7799999993294,"<img src=""7C_10S_yellow3.jpg"" style=""width:500px;""></img>",76,html-keyboard-response,254,309719,0.0-3.0-0.0-1.71,test,1,72,1,7C_10S_yellow3.jpg,respond,squares,squares,true,"2020-11-09 16:02:37",98.200.17.108,"Mozilla/5.0 (Windows NT 6.1; Win64; x64) AppleWebKit/537.36 (KHTML, like Gecko) Chrome/86.0.4240.183 Safari/537.36",WebKit,Chrome,86.0.4240.183,Windows,6.1
33,1,null,reward-coin-drop.mp3,null,audio-keyboard-response,255,311222,0.0-3.0-0.0-2.71-0.71,test,1,"""","""","""",reward-feedback,"""","""","""","2020-11-09 16:02:37",98.200.17.108,"Mozilla/5.0 (Windows NT 6.1; Win64; x64) AppleWebKit/537.36 (KHTML, like Gecko) Chrome/86.0.4240.183 Safari/537.36",WebKit,Chrome,86.0.4240.183,Windows,6.1
33,1,null,"<p class=""fixation"">+</p>",null,html-keyboard-response,256,311724,0.0-3.0-0.0-0.72,test,1,"""","""","""","""","""","""","""","2020-11-09 16:02:37",98.200.17.108,"Mozilla/5.0 (Windows NT 6.1; Win64; x64) AppleWebKit/537.36 (KHTML, like Gecko) Chrome/86.0.4240.183 Safari/537.36",WebKit,Chrome,86.0.4240.183,Windows,6.1
33,1,824.4600000034552,"<img src=""7S_10C_yellow6.jpg"" style=""width:500px;""></img>",76,html-keyboard-response,257,312550,0.0-3.0-0.0-1.72,test,1,73,1,7S_10C_yellow6.jpg,respond,circles,squares,false,"2020-11-09 16:02:37",98.200.17.108,"Mozilla/5.0 (Windows NT 6.1; Win64; x64) AppleWebKit/537.36 (KHTML, like Gecko) Chrome/86.0.4240.183 Safari/537.36",WebKit,Chrome,86.0.4240.183,Windows,6.1
33,1,null,"""",null,html-keyboard-response,258,314059,0.0-3.0-0.0-3.72-0.72,test,1,"""","""","""","""","""","""","""","2020-11-09 16:02:37",98.200.17.108,"Mozilla/5.0 (Windows NT 6.1; Win64; x64) AppleWebKit/537.36 (KHTML, like Gecko) Chrome/86.0.4240.183 Safari/537.36",WebKit,Chrome,86.0.4240.183,Windows,6.1
33,1,null,"<p class=""fixation"">+</p>",null,html-keyboard-response,259,314561,0.0-3.0-0.0-0.73,test,1,"""","""","""","""","""","""","""","2020-11-09 16:02:37",98.200.17.108,"Mozilla/5.0 (Windows NT 6.1; Win64; x64) AppleWebKit/537.36 (KHTML, like Gecko) Chrome/86.0.4240.183 Safari/537.36",WebKit,Chrome,86.0.4240.183,Windows,6.1
33,1,524.2450000077952,"<img src=""7C_10S_yellow5.jpg"" style=""width:500px;""></img>",76,html-keyboard-response,260,315086,0.0-3.0-0.0-1.73,test,1,74,0,7C_10S_yellow5.jpg,respond,squares,squares,true,"2020-11-09 16:02:37",98.200.17.108,"Mozilla/5.0 (Windows NT 6.1; Win64; x64) AppleWebKit/537.36 (KHTML, like Gecko) Chrome/86.0.4240.183 Safari/537.36",WebKit,Chrome,86.0.4240.183,Windows,6.1
33,1,null,"""",null,html-keyboard-response,261,316588,0.0-3.0-0.0-3.73-0.73,test,1,"""","""","""","""","""","""","""","2020-11-09 16:02:37",98.200.17.108,"Mozilla/5.0 (Windows NT 6.1; Win64; x64) AppleWebKit/537.36 (KHTML, like Gecko) Chrome/86.0.4240.183 Safari/537.36",WebKit,Chrome,86.0.4240.183,Windows,6.1
33,1,null,"<p class=""fixation"">+</p>",null,html-keyboard-response,262,317098,0.0-3.0-0.0-0.74,test,1,"""","""","""","""","""","""","""","2020-11-09 16:02:37",98.200.17.108,"Mozilla/5.0 (Windows NT 6.1; Win64; x64) AppleWebKit/537.36 (KHTML, like Gecko) Chrome/86.0.4240.183 Safari/537.36",WebKit,Chrome,86.0.4240.183,Windows,6.1
33,1,453.08499998645857,"<img src=""7C_10S_yellow5.jpg"" style=""width:500px;""></img>",65,html-keyboard-response,263,317553,0.0-3.0-0.0-1.74,test,1,75,1,7C_10S_yellow5.jpg,respond,squares,circles,false,"2020-11-09 16:02:37",98.200.17.108,"Mozilla/5.0 (Windows NT 6.1; Win64; x64) AppleWebKit/537.36 (KHTML, like Gecko) Chrome/86.0.4240.183 Safari/537.36",WebKit,Chrome,86.0.4240.183,Windows,6.1
33,1,null,"""",null,html-keyboard-response,264,319054,0.0-3.0-0.0-3.74-0.74,test,1,"""","""","""","""","""","""","""","2020-11-09 16:02:37",98.200.17.108,"Mozilla/5.0 (Windows NT 6.1; Win64; x64) AppleWebKit/537.36 (KHTML, like Gecko) Chrome/86.0.4240.183 Safari/537.36",WebKit,Chrome,86.0.4240.183,Windows,6.1
33,1,null,"<p class=""fixation"">+</p>",null,html-keyboard-response,265,319556,0.0-3.0-0.0-0.75,test,1,"""","""","""","""","""","""","""","2020-11-09 16:02:37",98.200.17.108,"Mozilla/5.0 (Windows NT 6.1; Win64; x64) AppleWebKit/537.36 (KHTML, like Gecko) Chrome/86.0.4240.183 Safari/537.36",WebKit,Chrome,86.0.4240.183,Windows,6.1
33,1,456.74500000313856,"<img src=""7S_10C_yellow6.jpg"" style=""width:500px;""></img>",76,html-keyboard-response,266,320016,0.0-3.0-0.0-1.75,test,1,76,0,7S_10C_yellow6.jpg,respond,circles,squares,false,"2020-11-09 16:02:37",98.200.17.108,"Mozilla/5.0 (Windows NT 6.1; Win64; x64) AppleWebKit/537.36 (KHTML, like Gecko) Chrome/86.0.4240.183 Safari/537.36",WebKit,Chrome,86.0.4240.183,Windows,6.1
33,1,null,"""",null,html-keyboard-response,267,321527,0.0-3.0-0.0-3.75-0.75,test,1,"""","""","""","""","""","""","""","2020-11-09 16:02:37",98.200.17.108,"Mozilla/5.0 (Windows NT 6.1; Win64; x64) AppleWebKit/537.36 (KHTML, like Gecko) Chrome/86.0.4240.183 Safari/537.36",WebKit,Chrome,86.0.4240.183,Windows,6.1
33,1,null,"<p class=""fixation"">+</p>",null,html-keyboard-response,268,322028,0.0-3.0-0.0-0.76,test,1,"""","""","""","""","""","""","""","2020-11-09 16:02:37",98.200.17.108,"Mozilla/5.0 (Windows NT 6.1; Win64; x64) AppleWebKit/537.36 (KHTML, like Gecko) Chrome/86.0.4240.183 Safari/537.36",WebKit,Chrome,86.0.4240.183,Windows,6.1
33,1,371.03499998920597,"<img src=""7C_10S_yellow4.jpg"" style=""width:500px;""></img>",76,html-keyboard-response,269,322401,0.0-3.0-0.0-1.76,test,1,77,1,7C_10S_yellow4.jpg,respond,squares,squares,true,"2020-11-09 16:02:37",98.200.17.108,"Mozilla/5.0 (Windows NT 6.1; Win64; x64) AppleWebKit/537.36 (KHTML, like Gecko) Chrome/86.0.4240.183 Safari/537.36",WebKit,Chrome,86.0.4240.183,Windows,6.1
33,1,null,reward-coin-drop.mp3,null,audio-keyboard-response,270,323904,0.0-3.0-0.0-2.76-0.76,test,1,"""","""","""",reward-feedback,"""","""","""","2020-11-09 16:02:37",98.200.17.108,"Mozilla/5.0 (Windows NT 6.1; Win64; x64) AppleWebKit/537.36 (KHTML, like Gecko) Chrome/86.0.4240.183 Safari/537.36",WebKit,Chrome,86.0.4240.183,Windows,6.1
33,1,null,"<p class=""fixation"">+</p>",null,html-keyboard-response,271,324412,0.0-3.0-0.0-0.77,test,1,"""","""","""","""","""","""","""","2020-11-09 16:02:37",98.200.17.108,"Mozilla/5.0 (Windows NT 6.1; Win64; x64) AppleWebKit/537.36 (KHTML, like Gecko) Chrome/86.0.4240.183 Safari/537.36",WebKit,Chrome,86.0.4240.183,Windows,6.1
33,1,455.5050000199117,"<img src=""7C_10S_yellow5.jpg"" style=""width:500px;""></img>",76,html-keyboard-response,272,324869,0.0-3.0-0.0-1.77,test,1,78,1,7C_10S_yellow5.jpg,respond,squares,squares,true,"2020-11-09 16:02:37",98.200.17.108,"Mozilla/5.0 (Windows NT 6.1; Win64; x64) AppleWebKit/537.36 (KHTML, like Gecko) Chrome/86.0.4240.183 Safari/537.36",WebKit,Chrome,86.0.4240.183,Windows,6.1
33,1,null,reward-coin-drop.mp3,null,audio-keyboard-response,273,326371,0.0-3.0-0.0-2.77-0.77,test,1,"""","""","""",reward-feedback,"""","""","""","2020-11-09 16:02:37",98.200.17.108,"Mozilla/5.0 (Windows NT 6.1; Win64; x64) AppleWebKit/537.36 (KHTML, like Gecko) Chrome/86.0.4240.183 Safari/537.36",WebKit,Chrome,86.0.4240.183,Windows,6.1
33,1,null,"<p class=""fixation"">+</p>",null,html-keyboard-response,274,326873,0.0-3.0-0.0-0.78,test,1,"""","""","""","""","""","""","""","2020-11-09 16:02:37",98.200.17.108,"Mozilla/5.0 (Windows NT 6.1; Win64; x64) AppleWebKit/537.36 (KHTML, like Gecko) Chrome/86.0.4240.183 Safari/537.36",WebKit,Chrome,86.0.4240.183,Windows,6.1
33,1,255.46500002383254,"<img src=""7S_10C_yellow8.jpg"" style=""width:500px;""></img>",76,html-keyboard-response,275,327130,0.0-3.0-0.0-1.78,test,1,79,0,7S_10C_yellow8.jpg,respond,circles,squares,false,"2020-11-09 16:02:37",98.200.17.108,"Mozilla/5.0 (Windows NT 6.1; Win64; x64) AppleWebKit/537.36 (KHTML, like Gecko) Chrome/86.0.4240.183 Safari/537.36",WebKit,Chrome,86.0.4240.183,Windows,6.1
33,1,null,"""",null,html-keyboard-response,276,328633,0.0-3.0-0.0-3.78-0.78,test,1,"""","""","""","""","""","""","""","2020-11-09 16:02:37",98.200.17.108,"Mozilla/5.0 (Windows NT 6.1; Win64; x64) AppleWebKit/537.36 (KHTML, like Gecko) Chrome/86.0.4240.183 Safari/537.36",WebKit,Chrome,86.0.4240.183,Windows,6.1
33,1,null,"<p class=""fixation"">+</p>",null,html-keyboard-response,277,329143,0.0-3.0-0.0-0.79,test,1,"""","""","""","""","""","""","""","2020-11-09 16:02:37",98.200.17.108,"Mozilla/5.0 (Windows NT 6.1; Win64; x64) AppleWebKit/537.36 (KHTML, like Gecko) Chrome/86.0.4240.183 Safari/537.36",WebKit,Chrome,86.0.4240.183,Windows,6.1
33,1,389.59500001510605,"<img src=""7C_10S_yellow5.jpg"" style=""width:500px;""></img>",65,html-keyboard-response,278,329534,0.0-3.0-0.0-1.79,test,1,80,1,7C_10S_yellow5.jpg,respond,squares,circles,false,"2020-11-09 16:02:37",98.200.17.108,"Mozilla/5.0 (Windows NT 6.1; Win64; x64) AppleWebKit/537.36 (KHTML, like Gecko) Chrome/86.0.4240.183 Safari/537.36",WebKit,Chrome,86.0.4240.183,Windows,6.1
