run_id,condition,rt,responses,task,trial_type,trial_index,time_elapsed,internal_node_id,left_shape,right_shape,bias_shape,subject_id,stimulus,key_press,phase,block,trial,rewarded,image,unrewarded_left_trials,unrewarded_right_trials,correct_shape,response,correct,did_reward,value,recorded_at,ip,user_agent,device,browser,browser_version,platform,platform_version
30,1,15841.67500003241,"{""Q0"":""CDA15""}",id,survey-text,0,15881,0.0-0.0,cats,dogs,dogs,CDA15,"""","""","""","""","""","""","""","""","""","""","""","""","""","""","2021-03-16 18:10:08",96.8.130.106,"Mozilla/5.0 (Windows NT 10.0; Win64; x64) AppleWebKit/537.36 (KHTML, like Gecko) Chrome/89.0.4389.82 Safari/537.36",WebKit,Chrome,89.0.4389.82,Windows,10.0
30,1,73840.3999999864,"""","""",html-keyboard-response,1,89727,0.0-1.0-0.0,cats,dogs,dogs,CDA15,"<p>Before you begin, please do the following: </p> <ol style=""text-align: left;""> <li> Place your computer on a flat surface. </li> 
	  <li> Seat yourself so that your face is approximately 1.5 feet (50 cm) from the screen.  </li>
	  <li>Ensure that your computer sound is switched on. </li> </ol>
	  <p>Press the spacebar to continue.</p>",32,"""","""","""","""","""","""","""","""","""","""","""","""","2021-03-16 18:10:08",96.8.130.106,"Mozilla/5.0 (Windows NT 10.0; Win64; x64) AppleWebKit/537.36 (KHTML, like Gecko) Chrome/89.0.4389.82 Safari/537.36",WebKit,Chrome,89.0.4389.82,Windows,10.0
30,1,10419.664999993984,"""","""",html-keyboard-response,2,100147,0.0-1.0-1.0,cats,dogs,dogs,CDA15,"<p>Please position your index fingers on the ""S"" and ""L"" keys for this experiment.
        The game will last approximately 10 minutes and is composed of 3 blocks 
        separated by a break.</p><p>Press the spacebar to continue.</p>",32,"""","""","""","""","""","""","""","""","""","""","""","""","2021-03-16 18:10:08",96.8.130.106,"Mozilla/5.0 (Windows NT 10.0; Win64; x64) AppleWebKit/537.36 (KHTML, like Gecko) Chrome/89.0.4389.82 Safari/537.36",WebKit,Chrome,89.0.4389.82,Windows,10.0
30,1,27551.25499999849,"""","""",html-keyboard-response,3,127701,0.0-1.0-2.0,cats,dogs,dogs,CDA15,"<p>You will be presented with either an image with more dogs than cats, or an image with 
        more cats than dogs. You will see them one at a time.</p>
        <p>Your task will be to decide whether more dogs or more cats were presented by pushing the correct button as quickly
        and accurately as possible.</p>
        <p>The ""S"" key will be used to identify more cats and the ""L"" key will be used 
        to identify more dogs. Examples of what the images look like are below:</p>
        <p style=""height: 300px;"">
        <img style=""width:250px; float: left;"" src=""img/7S_10C_yellow3.jpg""></img>
        <img style=""width:250px; float: right;"" src=""img/7C_10S_yellow3.jpg""></img>
        <span style=""text-align:center; width:250px; clear:both; float: left;"">More cats = S</span>
        <span style=""text-align:center; width:250px; float: right;"">More dogs = L</span>
        </p>
        <p>Press the spacebar to continue.</p>",32,"""","""","""","""","""","""","""","""","""","""","""","""","2021-03-16 18:10:08",96.8.130.106,"Mozilla/5.0 (Windows NT 10.0; Win64; x64) AppleWebKit/537.36 (KHTML, like Gecko) Chrome/89.0.4389.82 Safari/537.36",WebKit,Chrome,89.0.4389.82,Windows,10.0
30,1,8581.009999965318,"""","""",html-keyboard-response,4,136283,0.0-1.0-3.0,cats,dogs,dogs,CDA15,"<p style=""font-size: 18px;"">More cats</p>
        <img src=""img/yellow_circle.jpeg"" style=""width:100px;""></img>
        <p>The [S] key will be used to identify pictures with <span style=""text-decoration: underline;"">more cats.</span></p>
        <img style=""width:250px;"" src=""img/7S_10C_yellow3.jpg""></img>
        <p>Press the [S] key to continue.</p>",83,"""","""","""","""","""","""","""","""","""","""","""","""","2021-03-16 18:10:08",96.8.130.106,"Mozilla/5.0 (Windows NT 10.0; Win64; x64) AppleWebKit/537.36 (KHTML, like Gecko) Chrome/89.0.4389.82 Safari/537.36",WebKit,Chrome,89.0.4389.82,Windows,10.0
30,1,4840.755000011995,"""","""",html-keyboard-response,5,141126,0.0-1.0-4.0,cats,dogs,dogs,CDA15,"<p style=""font-size: 18px;"">More dogs</p>
        <img src=""img/yellow_square.jpeg"" style=""width:100px;""></img>
        <p>The [L] key will be used to identify pictures with <span style=""text-decoration: underline;"">more dogs.</span></p>
        <img style=""width:250px;"" src=""img/7C_10S_yellow3.jpg""></img>
        <p>Press the [L] key to continue.</p>",76,"""","""","""","""","""","""","""","""","""","""","""","""","2021-03-16 18:10:08",96.8.130.106,"Mozilla/5.0 (Windows NT 10.0; Win64; x64) AppleWebKit/537.36 (KHTML, like Gecko) Chrome/89.0.4389.82 Safari/537.36",WebKit,Chrome,89.0.4389.82,Windows,10.0
30,1,9451.564999995753,"""","""",html-keyboard-response,6,150565,0.0-1.0-5.0,cats,dogs,dogs,CDA15,"<p>Now, let's take a practice run. You will see a fixation cross, '+', on the screen. You should always focus your
        attention on the fixation cross as this will help you identify the image as quickly and accurately as possible. The fixation
        cross will be followed by an image with more dogs or more cats. Remember, if you think there are more cats
        press the ""S"" key. If you think there are more dogs press the ""L"" key.</p>
        <p>If you understand these directions and are ready to proceed to the practice round, please press the spacebar.</p>",32,"""","""","""","""","""","""","""","""","""","""","""","""","2021-03-16 18:10:08",96.8.130.106,"Mozilla/5.0 (Windows NT 10.0; Win64; x64) AppleWebKit/537.36 (KHTML, like Gecko) Chrome/89.0.4389.82 Safari/537.36",WebKit,Chrome,89.0.4389.82,Windows,10.0
30,1,null,"""","""",html-keyboard-response,7,151075,0.0-2.0-0.0-0.0,cats,dogs,dogs,CDA15,"<p class=""fixation"">+</p>",null,practice,"""","""","""","""","""","""","""","""","""","""","""","2021-03-16 18:10:08",96.8.130.106,"Mozilla/5.0 (Windows NT 10.0; Win64; x64) AppleWebKit/537.36 (KHTML, like Gecko) Chrome/89.0.4389.82 Safari/537.36",WebKit,Chrome,89.0.4389.82,Windows,10.0
30,1,782.329999958165,"""",respond,html-keyboard-response,8,151858,0.0-2.0-0.0-1.0,cats,dogs,dogs,CDA15,"<img src=""img/7S_10C_yellow4.jpg"" style=""width:500px;""></img>",83,practice,null,null,null,img/7S_10C_yellow4.jpg,0,0,cats,cats,true,false,"""","2021-03-16 18:10:08",96.8.130.106,"Mozilla/5.0 (Windows NT 10.0; Win64; x64) AppleWebKit/537.36 (KHTML, like Gecko) Chrome/89.0.4389.82 Safari/537.36",WebKit,Chrome,89.0.4389.82,Windows,10.0
30,1,null,"""",accuracy-feedback,audio-keyboard-response,9,153363,0.0-2.0-0.0-2.0,cats,dogs,dogs,CDA15,mp3/reward-coin-drop.mp3,null,practice,"""","""","""","""","""","""","""","""","""","""","""","2021-03-16 18:10:08",96.8.130.106,"Mozilla/5.0 (Windows NT 10.0; Win64; x64) AppleWebKit/537.36 (KHTML, like Gecko) Chrome/89.0.4389.82 Safari/537.36",WebKit,Chrome,89.0.4389.82,Windows,10.0
30,1,null,"""","""",html-keyboard-response,10,154884,0.0-2.0-0.0-3.0-0.0,cats,dogs,dogs,CDA15,"
      <div style=""position: absolute; top: 2vh; left: 2vw;"">
        <img src=""img/yellow_circle.jpeg"" style=""width:100px;""></img>
        <p>S = cats</p>
      </div>
      <div style=""position: absolute; top: 2vh; right: 2vw;"">
        <img src=""img/yellow_square.jpeg"" style=""width:100px;""></img>
        <p>L = dogs</p>
      </div>",null,practice,"""","""","""","""","""","""","""","""","""","""","""","2021-03-16 18:10:08",96.8.130.106,"Mozilla/5.0 (Windows NT 10.0; Win64; x64) AppleWebKit/537.36 (KHTML, like Gecko) Chrome/89.0.4389.82 Safari/537.36",WebKit,Chrome,89.0.4389.82,Windows,10.0
30,1,null,"""","""",html-keyboard-response,11,155405,0.0-2.0-0.0-0.1,cats,dogs,dogs,CDA15,"<p class=""fixation"">+</p>",null,practice,"""","""","""","""","""","""","""","""","""","""","""","2021-03-16 18:10:08",96.8.130.106,"Mozilla/5.0 (Windows NT 10.0; Win64; x64) AppleWebKit/537.36 (KHTML, like Gecko) Chrome/89.0.4389.82 Safari/537.36",WebKit,Chrome,89.0.4389.82,Windows,10.0
30,1,766.4799999911338,"""",respond,html-keyboard-response,12,156173,0.0-2.0-0.0-1.1,cats,dogs,dogs,CDA15,"<img src=""img/7C_10S_yellow4.jpg"" style=""width:500px;""></img>",83,practice,null,null,null,img/7C_10S_yellow4.jpg,0,0,dogs,cats,false,false,"""","2021-03-16 18:10:08",96.8.130.106,"Mozilla/5.0 (Windows NT 10.0; Win64; x64) AppleWebKit/537.36 (KHTML, like Gecko) Chrome/89.0.4389.82 Safari/537.36",WebKit,Chrome,89.0.4389.82,Windows,10.0
30,1,null,"""",accuracy-feedback,audio-keyboard-response,13,157678,0.0-2.0-0.0-2.1,cats,dogs,dogs,CDA15,null,null,practice,"""","""","""","""","""","""","""","""","""","""","""","2021-03-16 18:10:08",96.8.130.106,"Mozilla/5.0 (Windows NT 10.0; Win64; x64) AppleWebKit/537.36 (KHTML, like Gecko) Chrome/89.0.4389.82 Safari/537.36",WebKit,Chrome,89.0.4389.82,Windows,10.0
30,1,null,"""","""",html-keyboard-response,14,159194,0.0-2.0-0.0-3.1-0.1,cats,dogs,dogs,CDA15,"
      <div style=""position: absolute; top: 2vh; left: 2vw;"">
        <img src=""img/yellow_circle.jpeg"" style=""width:100px;""></img>
        <p>S = cats</p>
      </div>
      <div style=""position: absolute; top: 2vh; right: 2vw;"">
        <img src=""img/yellow_square.jpeg"" style=""width:100px;""></img>
        <p>L = dogs</p>
      </div>",null,practice,"""","""","""","""","""","""","""","""","""","""","""","2021-03-16 18:10:08",96.8.130.106,"Mozilla/5.0 (Windows NT 10.0; Win64; x64) AppleWebKit/537.36 (KHTML, like Gecko) Chrome/89.0.4389.82 Safari/537.36",WebKit,Chrome,89.0.4389.82,Windows,10.0
30,1,null,"""","""",html-keyboard-response,15,159710,0.0-2.0-0.0-0.2,cats,dogs,dogs,CDA15,"<p class=""fixation"">+</p>",null,practice,"""","""","""","""","""","""","""","""","""","""","""","2021-03-16 18:10:08",96.8.130.106,"Mozilla/5.0 (Windows NT 10.0; Win64; x64) AppleWebKit/537.36 (KHTML, like Gecko) Chrome/89.0.4389.82 Safari/537.36",WebKit,Chrome,89.0.4389.82,Windows,10.0
30,1,403.77999999327585,"""",respond,html-keyboard-response,16,160116,0.0-2.0-0.0-1.2,cats,dogs,dogs,CDA15,"<img src=""img/7C_10S_yellow5.jpg"" style=""width:500px;""></img>",76,practice,null,null,null,img/7C_10S_yellow5.jpg,0,0,dogs,dogs,true,false,"""","2021-03-16 18:10:08",96.8.130.106,"Mozilla/5.0 (Windows NT 10.0; Win64; x64) AppleWebKit/537.36 (KHTML, like Gecko) Chrome/89.0.4389.82 Safari/537.36",WebKit,Chrome,89.0.4389.82,Windows,10.0
30,1,null,"""",accuracy-feedback,audio-keyboard-response,17,161629,0.0-2.0-0.0-2.2,cats,dogs,dogs,CDA15,mp3/reward-coin-drop.mp3,null,practice,"""","""","""","""","""","""","""","""","""","""","""","2021-03-16 18:10:08",96.8.130.106,"Mozilla/5.0 (Windows NT 10.0; Win64; x64) AppleWebKit/537.36 (KHTML, like Gecko) Chrome/89.0.4389.82 Safari/537.36",WebKit,Chrome,89.0.4389.82,Windows,10.0
30,1,null,"""","""",html-keyboard-response,18,163139,0.0-2.0-0.0-3.2-0.2,cats,dogs,dogs,CDA15,"
      <div style=""position: absolute; top: 2vh; left: 2vw;"">
        <img src=""img/yellow_circle.jpeg"" style=""width:100px;""></img>
        <p>S = cats</p>
      </div>
      <div style=""position: absolute; top: 2vh; right: 2vw;"">
        <img src=""img/yellow_square.jpeg"" style=""width:100px;""></img>
        <p>L = dogs</p>
      </div>",null,practice,"""","""","""","""","""","""","""","""","""","""","""","2021-03-16 18:10:08",96.8.130.106,"Mozilla/5.0 (Windows NT 10.0; Win64; x64) AppleWebKit/537.36 (KHTML, like Gecko) Chrome/89.0.4389.82 Safari/537.36",WebKit,Chrome,89.0.4389.82,Windows,10.0
30,1,null,"""","""",html-keyboard-response,19,163653,0.0-2.0-0.0-0.3,cats,dogs,dogs,CDA15,"<p class=""fixation"">+</p>",null,practice,"""","""","""","""","""","""","""","""","""","""","""","2021-03-16 18:10:08",96.8.130.106,"Mozilla/5.0 (Windows NT 10.0; Win64; x64) AppleWebKit/537.36 (KHTML, like Gecko) Chrome/89.0.4389.82 Safari/537.36",WebKit,Chrome,89.0.4389.82,Windows,10.0
30,1,395.31500003067777,"""",respond,html-keyboard-response,20,164051,0.0-2.0-0.0-1.3,cats,dogs,dogs,CDA15,"<img src=""img/7C_10S_yellow6.jpg"" style=""width:500px;""></img>",76,practice,null,null,null,img/7C_10S_yellow6.jpg,0,0,dogs,dogs,true,false,"""","2021-03-16 18:10:08",96.8.130.106,"Mozilla/5.0 (Windows NT 10.0; Win64; x64) AppleWebKit/537.36 (KHTML, like Gecko) Chrome/89.0.4389.82 Safari/537.36",WebKit,Chrome,89.0.4389.82,Windows,10.0
30,1,null,"""",accuracy-feedback,audio-keyboard-response,21,165566,0.0-2.0-0.0-2.3,cats,dogs,dogs,CDA15,mp3/reward-coin-drop.mp3,null,practice,"""","""","""","""","""","""","""","""","""","""","""","2021-03-16 18:10:08",96.8.130.106,"Mozilla/5.0 (Windows NT 10.0; Win64; x64) AppleWebKit/537.36 (KHTML, like Gecko) Chrome/89.0.4389.82 Safari/537.36",WebKit,Chrome,89.0.4389.82,Windows,10.0
30,1,null,"""","""",html-keyboard-response,22,167079,0.0-2.0-0.0-3.3-0.3,cats,dogs,dogs,CDA15,"
      <div style=""position: absolute; top: 2vh; left: 2vw;"">
        <img src=""img/yellow_circle.jpeg"" style=""width:100px;""></img>
        <p>S = cats</p>
      </div>
      <div style=""position: absolute; top: 2vh; right: 2vw;"">
        <img src=""img/yellow_square.jpeg"" style=""width:100px;""></img>
        <p>L = dogs</p>
      </div>",null,practice,"""","""","""","""","""","""","""","""","""","""","""","2021-03-16 18:10:08",96.8.130.106,"Mozilla/5.0 (Windows NT 10.0; Win64; x64) AppleWebKit/537.36 (KHTML, like Gecko) Chrome/89.0.4389.82 Safari/537.36",WebKit,Chrome,89.0.4389.82,Windows,10.0
30,1,null,"""","""",html-keyboard-response,23,167588,0.0-2.0-0.0-0.4,cats,dogs,dogs,CDA15,"<p class=""fixation"">+</p>",null,practice,"""","""","""","""","""","""","""","""","""","""","""","2021-03-16 18:10:08",96.8.130.106,"Mozilla/5.0 (Windows NT 10.0; Win64; x64) AppleWebKit/537.36 (KHTML, like Gecko) Chrome/89.0.4389.82 Safari/537.36",WebKit,Chrome,89.0.4389.82,Windows,10.0
30,1,388.9849999686703,"""",respond,html-keyboard-response,24,167979,0.0-2.0-0.0-1.4,cats,dogs,dogs,CDA15,"<img src=""img/7S_10C_yellow6.jpg"" style=""width:500px;""></img>",83,practice,null,null,null,img/7S_10C_yellow6.jpg,0,0,cats,cats,true,false,"""","2021-03-16 18:10:08",96.8.130.106,"Mozilla/5.0 (Windows NT 10.0; Win64; x64) AppleWebKit/537.36 (KHTML, like Gecko) Chrome/89.0.4389.82 Safari/537.36",WebKit,Chrome,89.0.4389.82,Windows,10.0
30,1,null,"""",accuracy-feedback,audio-keyboard-response,25,169483,0.0-2.0-0.0-2.4,cats,dogs,dogs,CDA15,mp3/reward-coin-drop.mp3,null,practice,"""","""","""","""","""","""","""","""","""","""","""","2021-03-16 18:10:08",96.8.130.106,"Mozilla/5.0 (Windows NT 10.0; Win64; x64) AppleWebKit/537.36 (KHTML, like Gecko) Chrome/89.0.4389.82 Safari/537.36",WebKit,Chrome,89.0.4389.82,Windows,10.0
30,1,null,"""","""",html-keyboard-response,26,170985,0.0-2.0-0.0-3.4-0.4,cats,dogs,dogs,CDA15,"
      <div style=""position: absolute; top: 2vh; left: 2vw;"">
        <img src=""img/yellow_circle.jpeg"" style=""width:100px;""></img>
        <p>S = cats</p>
      </div>
      <div style=""position: absolute; top: 2vh; right: 2vw;"">
        <img src=""img/yellow_square.jpeg"" style=""width:100px;""></img>
        <p>L = dogs</p>
      </div>",null,practice,"""","""","""","""","""","""","""","""","""","""","""","2021-03-16 18:10:08",96.8.130.106,"Mozilla/5.0 (Windows NT 10.0; Win64; x64) AppleWebKit/537.36 (KHTML, like Gecko) Chrome/89.0.4389.82 Safari/537.36",WebKit,Chrome,89.0.4389.82,Windows,10.0
30,1,null,"""","""",html-keyboard-response,27,171501,0.0-2.0-0.0-0.5,cats,dogs,dogs,CDA15,"<p class=""fixation"">+</p>",null,practice,"""","""","""","""","""","""","""","""","""","""","""","2021-03-16 18:10:08",96.8.130.106,"Mozilla/5.0 (Windows NT 10.0; Win64; x64) AppleWebKit/537.36 (KHTML, like Gecko) Chrome/89.0.4389.82 Safari/537.36",WebKit,Chrome,89.0.4389.82,Windows,10.0
30,1,422.8599999914877,"""",respond,html-keyboard-response,28,171926,0.0-2.0-0.0-1.5,cats,dogs,dogs,CDA15,"<img src=""img/7S_10C_yellow5.jpg"" style=""width:500px;""></img>",83,practice,null,null,null,img/7S_10C_yellow5.jpg,0,0,cats,cats,true,false,"""","2021-03-16 18:10:08",96.8.130.106,"Mozilla/5.0 (Windows NT 10.0; Win64; x64) AppleWebKit/537.36 (KHTML, like Gecko) Chrome/89.0.4389.82 Safari/537.36",WebKit,Chrome,89.0.4389.82,Windows,10.0
30,1,null,"""",accuracy-feedback,audio-keyboard-response,29,173435,0.0-2.0-0.0-2.5,cats,dogs,dogs,CDA15,mp3/reward-coin-drop.mp3,null,practice,"""","""","""","""","""","""","""","""","""","""","""","2021-03-16 18:10:08",96.8.130.106,"Mozilla/5.0 (Windows NT 10.0; Win64; x64) AppleWebKit/537.36 (KHTML, like Gecko) Chrome/89.0.4389.82 Safari/537.36",WebKit,Chrome,89.0.4389.82,Windows,10.0
30,1,null,"""","""",html-keyboard-response,30,174945,0.0-2.0-0.0-3.5-0.5,cats,dogs,dogs,CDA15,"
      <div style=""position: absolute; top: 2vh; left: 2vw;"">
        <img src=""img/yellow_circle.jpeg"" style=""width:100px;""></img>
        <p>S = cats</p>
      </div>
      <div style=""position: absolute; top: 2vh; right: 2vw;"">
        <img src=""img/yellow_square.jpeg"" style=""width:100px;""></img>
        <p>L = dogs</p>
      </div>",null,practice,"""","""","""","""","""","""","""","""","""","""","""","2021-03-16 18:10:08",96.8.130.106,"Mozilla/5.0 (Windows NT 10.0; Win64; x64) AppleWebKit/537.36 (KHTML, like Gecko) Chrome/89.0.4389.82 Safari/537.36",WebKit,Chrome,89.0.4389.82,Windows,10.0
30,1,null,"""","""",html-keyboard-response,31,175455,0.0-2.0-0.0-0.6,cats,dogs,dogs,CDA15,"<p class=""fixation"">+</p>",null,practice,"""","""","""","""","""","""","""","""","""","""","""","2021-03-16 18:10:08",96.8.130.106,"Mozilla/5.0 (Windows NT 10.0; Win64; x64) AppleWebKit/537.36 (KHTML, like Gecko) Chrome/89.0.4389.82 Safari/537.36",WebKit,Chrome,89.0.4389.82,Windows,10.0
30,1,424.76500000339,"""",respond,html-keyboard-response,32,175882,0.0-2.0-0.0-1.6,cats,dogs,dogs,CDA15,"<img src=""img/7S_10C_yellow3.jpg"" style=""width:500px;""></img>",76,practice,null,null,null,img/7S_10C_yellow3.jpg,0,0,cats,dogs,false,false,"""","2021-03-16 18:10:08",96.8.130.106,"Mozilla/5.0 (Windows NT 10.0; Win64; x64) AppleWebKit/537.36 (KHTML, like Gecko) Chrome/89.0.4389.82 Safari/537.36",WebKit,Chrome,89.0.4389.82,Windows,10.0
30,1,null,"""",accuracy-feedback,audio-keyboard-response,33,177394,0.0-2.0-0.0-2.6,cats,dogs,dogs,CDA15,null,null,practice,"""","""","""","""","""","""","""","""","""","""","""","2021-03-16 18:10:08",96.8.130.106,"Mozilla/5.0 (Windows NT 10.0; Win64; x64) AppleWebKit/537.36 (KHTML, like Gecko) Chrome/89.0.4389.82 Safari/537.36",WebKit,Chrome,89.0.4389.82,Windows,10.0
30,1,null,"""","""",html-keyboard-response,34,178905,0.0-2.0-0.0-3.6-0.6,cats,dogs,dogs,CDA15,"
      <div style=""position: absolute; top: 2vh; left: 2vw;"">
        <img src=""img/yellow_circle.jpeg"" style=""width:100px;""></img>
        <p>S = cats</p>
      </div>
      <div style=""position: absolute; top: 2vh; right: 2vw;"">
        <img src=""img/yellow_square.jpeg"" style=""width:100px;""></img>
        <p>L = dogs</p>
      </div>",null,practice,"""","""","""","""","""","""","""","""","""","""","""","2021-03-16 18:10:08",96.8.130.106,"Mozilla/5.0 (Windows NT 10.0; Win64; x64) AppleWebKit/537.36 (KHTML, like Gecko) Chrome/89.0.4389.82 Safari/537.36",WebKit,Chrome,89.0.4389.82,Windows,10.0
30,1,null,"""","""",html-keyboard-response,35,179425,0.0-2.0-0.0-0.7,cats,dogs,dogs,CDA15,"<p class=""fixation"">+</p>",null,practice,"""","""","""","""","""","""","""","""","""","""","""","2021-03-16 18:10:08",96.8.130.106,"Mozilla/5.0 (Windows NT 10.0; Win64; x64) AppleWebKit/537.36 (KHTML, like Gecko) Chrome/89.0.4389.82 Safari/537.36",WebKit,Chrome,89.0.4389.82,Windows,10.0
30,1,232.17999999178573,"""",respond,html-keyboard-response,36,179805,0.0-2.0-0.0-1.7,cats,dogs,dogs,CDA15,"<img src=""img/7C_10S_yellow3.jpg"" style=""width:500px;""></img>",76,practice,null,null,null,img/7C_10S_yellow3.jpg,0,0,dogs,dogs,true,false,"""","2021-03-16 18:10:08",96.8.130.106,"Mozilla/5.0 (Windows NT 10.0; Win64; x64) AppleWebKit/537.36 (KHTML, like Gecko) Chrome/89.0.4389.82 Safari/537.36",WebKit,Chrome,89.0.4389.82,Windows,10.0
30,1,null,"""",accuracy-feedback,audio-keyboard-response,37,181315,0.0-2.0-0.0-2.7,cats,dogs,dogs,CDA15,mp3/reward-coin-drop.mp3,null,practice,"""","""","""","""","""","""","""","""","""","""","""","2021-03-16 18:10:08",96.8.130.106,"Mozilla/5.0 (Windows NT 10.0; Win64; x64) AppleWebKit/537.36 (KHTML, like Gecko) Chrome/89.0.4389.82 Safari/537.36",WebKit,Chrome,89.0.4389.82,Windows,10.0
30,1,null,"""","""",html-keyboard-response,38,182835,0.0-2.0-0.0-3.7-0.7,cats,dogs,dogs,CDA15,"
      <div style=""position: absolute; top: 2vh; left: 2vw;"">
        <img src=""img/yellow_circle.jpeg"" style=""width:100px;""></img>
        <p>S = cats</p>
      </div>
      <div style=""position: absolute; top: 2vh; right: 2vw;"">
        <img src=""img/yellow_square.jpeg"" style=""width:100px;""></img>
        <p>L = dogs</p>
      </div>",null,practice,"""","""","""","""","""","""","""","""","""","""","""","2021-03-16 18:10:08",96.8.130.106,"Mozilla/5.0 (Windows NT 10.0; Win64; x64) AppleWebKit/537.36 (KHTML, like Gecko) Chrome/89.0.4389.82 Safari/537.36",WebKit,Chrome,89.0.4389.82,Windows,10.0
30,1,2100.884999963455,"""","""",html-keyboard-response,39,184939,0.0-2.0-1.0,cats,dogs,dogs,CDA15,"<p>Would you like to practice more? y = yes, n = no</p>",78,"""","""","""","""","""","""","""","""","""","""","""","""","2021-03-16 18:10:08",96.8.130.106,"Mozilla/5.0 (Windows NT 10.0; Win64; x64) AppleWebKit/537.36 (KHTML, like Gecko) Chrome/89.0.4389.82 Safari/537.36",WebKit,Chrome,89.0.4389.82,Windows,10.0
30,1,14157.645000028424,"""","""",html-keyboard-response,40,199098,0.0-3.0-0.0,cats,dogs,dogs,CDA15,"<p>For some trials, a correct identification will result in a monetary reward of 5 cents.</p>
          <p>Press the spacebar to see what this will look like.</p>",32,"""","""","""","""","""","""","""","""","""","""","""","""","2021-03-16 18:10:08",96.8.130.106,"Mozilla/5.0 (Windows NT 10.0; Win64; x64) AppleWebKit/537.36 (KHTML, like Gecko) Chrome/89.0.4389.82 Safari/537.36",WebKit,Chrome,89.0.4389.82,Windows,10.0
30,1,null,"""","""",audio-keyboard-response,41,200600,0.0-3.0-1.0,cats,dogs,dogs,CDA15,mp3/reward-coin-drop.mp3,null,"""","""","""","""","""","""","""","""","""","""","""","""","2021-03-16 18:10:08",96.8.130.106,"Mozilla/5.0 (Windows NT 10.0; Win64; x64) AppleWebKit/537.36 (KHTML, like Gecko) Chrome/89.0.4389.82 Safari/537.36",WebKit,Chrome,89.0.4389.82,Windows,10.0
30,1,7418.015000002924,"""","""",html-keyboard-response,42,208019,0.0-3.0-2.0,cats,dogs,dogs,CDA15,"<p><span style=""color:red; font-weight:bold;"">Not all</span> correct responses will receive a reward.</p><p>At the end of the experiment you will be given the amount of money you have accumulated. The more correct identifications
          you make, the more money you will take home.</p><p>Press the spacebar to continue.</p>",32,"""","""","""","""","""","""","""","""","""","""","""","""","2021-03-16 18:10:08",96.8.130.106,"Mozilla/5.0 (Windows NT 10.0; Win64; x64) AppleWebKit/537.36 (KHTML, like Gecko) Chrome/89.0.4389.82 Safari/537.36",WebKit,Chrome,89.0.4389.82,Windows,10.0
30,1,5086.045000003651,"""","""",html-keyboard-response,43,213120,0.0-3.0-3.0,cats,dogs,dogs,CDA15,"<p>We are now ready to begin the experiment.</p>
        <p>Remember, focus your attention on the fixation cross before each trial. If you think there are more cats
        press the ""S"" key. If you think there are more dogs press the ""L"" key.</p>
        <p>Good luck!</p>
        <p>Press the spacebar to begin.</p>",32,"""","""","""","""","""","""","""","""","""","""","""","""","2021-03-16 18:10:08",96.8.130.106,"Mozilla/5.0 (Windows NT 10.0; Win64; x64) AppleWebKit/537.36 (KHTML, like Gecko) Chrome/89.0.4389.82 Safari/537.36",WebKit,Chrome,89.0.4389.82,Windows,10.0
30,1,null,"""","""",html-keyboard-response,44,213628,0.0-4.0-0.0-0.0,cats,dogs,dogs,CDA15,"<p class=""fixation"">+</p>",null,test,1,"""","""","""","""","""","""","""","""","""","""","2021-03-16 18:10:08",96.8.130.106,"Mozilla/5.0 (Windows NT 10.0; Win64; x64) AppleWebKit/537.36 (KHTML, like Gecko) Chrome/89.0.4389.82 Safari/537.36",WebKit,Chrome,89.0.4389.82,Windows,10.0
30,1,475.50000000046566,"""",respond,html-keyboard-response,45,214108,0.0-4.0-0.0-1.0,cats,dogs,dogs,CDA15,"<img src=""img/7S_10C_yellow6.jpg"" style=""width:500px;""></img>",83,test,1,1,0,img/7S_10C_yellow6.jpg,0,0,cats,cats,true,false,"""","2021-03-16 18:10:08",96.8.130.106,"Mozilla/5.0 (Windows NT 10.0; Win64; x64) AppleWebKit/537.36 (KHTML, like Gecko) Chrome/89.0.4389.82 Safari/537.36",WebKit,Chrome,89.0.4389.82,Windows,10.0
30,1,null,"""","""",html-keyboard-response,46,215625,0.0-4.0-0.0-4.0-0.0,cats,dogs,dogs,CDA15,"
      <div style=""position: absolute; top: 2vh; left: 2vw;"">
        <img src=""img/yellow_circle.jpeg"" style=""width:100px;""></img>
        <p>S = cats</p>
      </div>
      <div style=""position: absolute; top: 2vh; right: 2vw;"">
        <img src=""img/yellow_square.jpeg"" style=""width:100px;""></img>
        <p>L = dogs</p>
      </div>",null,test,1,"""","""","""","""","""","""","""","""","""","""","2021-03-16 18:10:08",96.8.130.106,"Mozilla/5.0 (Windows NT 10.0; Win64; x64) AppleWebKit/537.36 (KHTML, like Gecko) Chrome/89.0.4389.82 Safari/537.36",WebKit,Chrome,89.0.4389.82,Windows,10.0
30,1,null,"""","""",html-keyboard-response,47,216134,0.0-4.0-0.0-0.1,cats,dogs,dogs,CDA15,"<p class=""fixation"">+</p>",null,test,1,"""","""","""","""","""","""","""","""","""","""","2021-03-16 18:10:08",96.8.130.106,"Mozilla/5.0 (Windows NT 10.0; Win64; x64) AppleWebKit/537.36 (KHTML, like Gecko) Chrome/89.0.4389.82 Safari/537.36",WebKit,Chrome,89.0.4389.82,Windows,10.0
30,1,466.13000001525506,"""",respond,html-keyboard-response,48,216601,0.0-4.0-0.0-1.1,cats,dogs,dogs,CDA15,"<img src=""img/7C_10S_yellow5.jpg"" style=""width:500px;""></img>",76,test,1,2,1,img/7C_10S_yellow5.jpg,0,0,dogs,dogs,true,true,"""","2021-03-16 18:10:08",96.8.130.106,"Mozilla/5.0 (Windows NT 10.0; Win64; x64) AppleWebKit/537.36 (KHTML, like Gecko) Chrome/89.0.4389.82 Safari/537.36",WebKit,Chrome,89.0.4389.82,Windows,10.0
30,1,null,"""",reward-feedback,audio-keyboard-response,49,218118,0.0-4.0-0.0-3.1-0.1,cats,dogs,dogs,CDA15,mp3/reward-coin-drop.mp3,null,test,1,"""","""","""","""","""","""","""","""","""","""","2021-03-16 18:10:08",96.8.130.106,"Mozilla/5.0 (Windows NT 10.0; Win64; x64) AppleWebKit/537.36 (KHTML, like Gecko) Chrome/89.0.4389.82 Safari/537.36",WebKit,Chrome,89.0.4389.82,Windows,10.0
30,1,null,"""","""",html-keyboard-response,50,218622,0.0-4.0-0.0-0.2,cats,dogs,dogs,CDA15,"<p class=""fixation"">+</p>",null,test,1,"""","""","""","""","""","""","""","""","""","""","2021-03-16 18:10:08",96.8.130.106,"Mozilla/5.0 (Windows NT 10.0; Win64; x64) AppleWebKit/537.36 (KHTML, like Gecko) Chrome/89.0.4389.82 Safari/537.36",WebKit,Chrome,89.0.4389.82,Windows,10.0
30,1,448.5949999652803,"""",respond,html-keyboard-response,51,219072,0.0-4.0-0.0-1.2,cats,dogs,dogs,CDA15,"<img src=""img/7S_10C_yellow6.jpg"" style=""width:500px;""></img>",83,test,1,3,0,img/7S_10C_yellow6.jpg,0,0,cats,cats,true,false,"""","2021-03-16 18:10:08",96.8.130.106,"Mozilla/5.0 (Windows NT 10.0; Win64; x64) AppleWebKit/537.36 (KHTML, like Gecko) Chrome/89.0.4389.82 Safari/537.36",WebKit,Chrome,89.0.4389.82,Windows,10.0
30,1,null,"""","""",html-keyboard-response,52,220576,0.0-4.0-0.0-4.2-0.2,cats,dogs,dogs,CDA15,"
      <div style=""position: absolute; top: 2vh; left: 2vw;"">
        <img src=""img/yellow_circle.jpeg"" style=""width:100px;""></img>
        <p>S = cats</p>
      </div>
      <div style=""position: absolute; top: 2vh; right: 2vw;"">
        <img src=""img/yellow_square.jpeg"" style=""width:100px;""></img>
        <p>L = dogs</p>
      </div>",null,test,1,"""","""","""","""","""","""","""","""","""","""","2021-03-16 18:10:08",96.8.130.106,"Mozilla/5.0 (Windows NT 10.0; Win64; x64) AppleWebKit/537.36 (KHTML, like Gecko) Chrome/89.0.4389.82 Safari/537.36",WebKit,Chrome,89.0.4389.82,Windows,10.0
30,1,null,"""","""",html-keyboard-response,53,221089,0.0-4.0-0.0-0.3,cats,dogs,dogs,CDA15,"<p class=""fixation"">+</p>",null,test,1,"""","""","""","""","""","""","""","""","""","""","2021-03-16 18:10:08",96.8.130.106,"Mozilla/5.0 (Windows NT 10.0; Win64; x64) AppleWebKit/537.36 (KHTML, like Gecko) Chrome/89.0.4389.82 Safari/537.36",WebKit,Chrome,89.0.4389.82,Windows,10.0
30,1,382.4550000135787,"""",respond,html-keyboard-response,54,221473,0.0-4.0-0.0-1.3,cats,dogs,dogs,CDA15,"<img src=""img/7C_10S_yellow3.jpg"" style=""width:500px;""></img>",76,test,1,4,1,img/7C_10S_yellow3.jpg,0,0,dogs,dogs,true,true,"""","2021-03-16 18:10:08",96.8.130.106,"Mozilla/5.0 (Windows NT 10.0; Win64; x64) AppleWebKit/537.36 (KHTML, like Gecko) Chrome/89.0.4389.82 Safari/537.36",WebKit,Chrome,89.0.4389.82,Windows,10.0
30,1,null,"""",reward-feedback,audio-keyboard-response,55,222978,0.0-4.0-0.0-3.3-0.3,cats,dogs,dogs,CDA15,mp3/reward-coin-drop.mp3,null,test,1,"""","""","""","""","""","""","""","""","""","""","2021-03-16 18:10:08",96.8.130.106,"Mozilla/5.0 (Windows NT 10.0; Win64; x64) AppleWebKit/537.36 (KHTML, like Gecko) Chrome/89.0.4389.82 Safari/537.36",WebKit,Chrome,89.0.4389.82,Windows,10.0
30,1,null,"""","""",html-keyboard-response,56,223482,0.0-4.0-0.0-0.4,cats,dogs,dogs,CDA15,"<p class=""fixation"">+</p>",null,test,1,"""","""","""","""","""","""","""","""","""","""","2021-03-16 18:10:08",96.8.130.106,"Mozilla/5.0 (Windows NT 10.0; Win64; x64) AppleWebKit/537.36 (KHTML, like Gecko) Chrome/89.0.4389.82 Safari/537.36",WebKit,Chrome,89.0.4389.82,Windows,10.0
30,1,434.56500000320375,"""",respond,html-keyboard-response,57,223920,0.0-4.0-0.0-1.4,cats,dogs,dogs,CDA15,"<img src=""img/7S_10C_yellow7.jpg"" style=""width:500px;""></img>",83,test,1,5,0,img/7S_10C_yellow7.jpg,0,0,cats,cats,true,false,"""","2021-03-16 18:10:08",96.8.130.106,"Mozilla/5.0 (Windows NT 10.0; Win64; x64) AppleWebKit/537.36 (KHTML, like Gecko) Chrome/89.0.4389.82 Safari/537.36",WebKit,Chrome,89.0.4389.82,Windows,10.0
30,1,null,"""","""",html-keyboard-response,58,225428,0.0-4.0-0.0-4.4-0.4,cats,dogs,dogs,CDA15,"
      <div style=""position: absolute; top: 2vh; left: 2vw;"">
        <img src=""img/yellow_circle.jpeg"" style=""width:100px;""></img>
        <p>S = cats</p>
      </div>
      <div style=""position: absolute; top: 2vh; right: 2vw;"">
        <img src=""img/yellow_square.jpeg"" style=""width:100px;""></img>
        <p>L = dogs</p>
      </div>",null,test,1,"""","""","""","""","""","""","""","""","""","""","2021-03-16 18:10:08",96.8.130.106,"Mozilla/5.0 (Windows NT 10.0; Win64; x64) AppleWebKit/537.36 (KHTML, like Gecko) Chrome/89.0.4389.82 Safari/537.36",WebKit,Chrome,89.0.4389.82,Windows,10.0
30,1,null,"""","""",html-keyboard-response,59,225942,0.0-4.0-0.0-0.5,cats,dogs,dogs,CDA15,"<p class=""fixation"">+</p>",null,test,1,"""","""","""","""","""","""","""","""","""","""","2021-03-16 18:10:08",96.8.130.106,"Mozilla/5.0 (Windows NT 10.0; Win64; x64) AppleWebKit/537.36 (KHTML, like Gecko) Chrome/89.0.4389.82 Safari/537.36",WebKit,Chrome,89.0.4389.82,Windows,10.0
30,1,323.4200000297278,"""",respond,html-keyboard-response,60,226322,0.0-4.0-0.0-1.5,cats,dogs,dogs,CDA15,"<img src=""img/7S_10C_yellow7.jpg"" style=""width:500px;""></img>",83,test,1,6,0,img/7S_10C_yellow7.jpg,0,0,cats,cats,true,false,"""","2021-03-16 18:10:08",96.8.130.106,"Mozilla/5.0 (Windows NT 10.0; Win64; x64) AppleWebKit/537.36 (KHTML, like Gecko) Chrome/89.0.4389.82 Safari/537.36",WebKit,Chrome,89.0.4389.82,Windows,10.0
30,1,null,"""","""",html-keyboard-response,61,227832,0.0-4.0-0.0-4.5-0.5,cats,dogs,dogs,CDA15,"
      <div style=""position: absolute; top: 2vh; left: 2vw;"">
        <img src=""img/yellow_circle.jpeg"" style=""width:100px;""></img>
        <p>S = cats</p>
      </div>
      <div style=""position: absolute; top: 2vh; right: 2vw;"">
        <img src=""img/yellow_square.jpeg"" style=""width:100px;""></img>
        <p>L = dogs</p>
      </div>",null,test,1,"""","""","""","""","""","""","""","""","""","""","2021-03-16 18:10:08",96.8.130.106,"Mozilla/5.0 (Windows NT 10.0; Win64; x64) AppleWebKit/537.36 (KHTML, like Gecko) Chrome/89.0.4389.82 Safari/537.36",WebKit,Chrome,89.0.4389.82,Windows,10.0
30,1,null,"""","""",html-keyboard-response,62,228333,0.0-4.0-0.0-0.6,cats,dogs,dogs,CDA15,"<p class=""fixation"">+</p>",null,test,1,"""","""","""","""","""","""","""","""","""","""","2021-03-16 18:10:08",96.8.130.106,"Mozilla/5.0 (Windows NT 10.0; Win64; x64) AppleWebKit/537.36 (KHTML, like Gecko) Chrome/89.0.4389.82 Safari/537.36",WebKit,Chrome,89.0.4389.82,Windows,10.0
30,1,315.3300000121817,"""",respond,html-keyboard-response,63,228723,0.0-4.0-0.0-1.6,cats,dogs,dogs,CDA15,"<img src=""img/7S_10C_yellow6.jpg"" style=""width:500px;""></img>",76,test,1,7,0,img/7S_10C_yellow6.jpg,0,0,cats,dogs,false,false,"""","2021-03-16 18:10:08",96.8.130.106,"Mozilla/5.0 (Windows NT 10.0; Win64; x64) AppleWebKit/537.36 (KHTML, like Gecko) Chrome/89.0.4389.82 Safari/537.36",WebKit,Chrome,89.0.4389.82,Windows,10.0
30,1,null,"""","""",html-keyboard-response,64,230230,0.0-4.0-0.0-4.6-0.6,cats,dogs,dogs,CDA15,"
      <div style=""position: absolute; top: 2vh; left: 2vw;"">
        <img src=""img/yellow_circle.jpeg"" style=""width:100px;""></img>
        <p>S = cats</p>
      </div>
      <div style=""position: absolute; top: 2vh; right: 2vw;"">
        <img src=""img/yellow_square.jpeg"" style=""width:100px;""></img>
        <p>L = dogs</p>
      </div>",null,test,1,"""","""","""","""","""","""","""","""","""","""","2021-03-16 18:10:08",96.8.130.106,"Mozilla/5.0 (Windows NT 10.0; Win64; x64) AppleWebKit/537.36 (KHTML, like Gecko) Chrome/89.0.4389.82 Safari/537.36",WebKit,Chrome,89.0.4389.82,Windows,10.0
30,1,null,"""","""",html-keyboard-response,65,230742,0.0-4.0-0.0-0.7,cats,dogs,dogs,CDA15,"<p class=""fixation"">+</p>",null,test,1,"""","""","""","""","""","""","""","""","""","""","2021-03-16 18:10:08",96.8.130.106,"Mozilla/5.0 (Windows NT 10.0; Win64; x64) AppleWebKit/537.36 (KHTML, like Gecko) Chrome/89.0.4389.82 Safari/537.36",WebKit,Chrome,89.0.4389.82,Windows,10.0
30,1,319.6100000059232,"""",respond,html-keyboard-response,66,231122,0.0-4.0-0.0-1.7,cats,dogs,dogs,CDA15,"<img src=""img/7C_10S_yellow5.jpg"" style=""width:500px;""></img>",76,test,1,8,1,img/7C_10S_yellow5.jpg,0,0,dogs,dogs,true,true,"""","2021-03-16 18:10:08",96.8.130.106,"Mozilla/5.0 (Windows NT 10.0; Win64; x64) AppleWebKit/537.36 (KHTML, like Gecko) Chrome/89.0.4389.82 Safari/537.36",WebKit,Chrome,89.0.4389.82,Windows,10.0
30,1,null,"""",reward-feedback,audio-keyboard-response,67,232624,0.0-4.0-0.0-3.7-0.7,cats,dogs,dogs,CDA15,mp3/reward-coin-drop.mp3,null,test,1,"""","""","""","""","""","""","""","""","""","""","2021-03-16 18:10:08",96.8.130.106,"Mozilla/5.0 (Windows NT 10.0; Win64; x64) AppleWebKit/537.36 (KHTML, like Gecko) Chrome/89.0.4389.82 Safari/537.36",WebKit,Chrome,89.0.4389.82,Windows,10.0
30,1,null,"""","""",html-keyboard-response,68,233142,0.0-4.0-0.0-0.8,cats,dogs,dogs,CDA15,"<p class=""fixation"">+</p>",null,test,1,"""","""","""","""","""","""","""","""","""","""","2021-03-16 18:10:08",96.8.130.106,"Mozilla/5.0 (Windows NT 10.0; Win64; x64) AppleWebKit/537.36 (KHTML, like Gecko) Chrome/89.0.4389.82 Safari/537.36",WebKit,Chrome,89.0.4389.82,Windows,10.0
30,1,315.52999996347353,"""",respond,html-keyboard-response,69,233522,0.0-4.0-0.0-1.8,cats,dogs,dogs,CDA15,"<img src=""img/7S_10C_yellow9.jpg"" style=""width:500px;""></img>",83,test,1,9,0,img/7S_10C_yellow9.jpg,0,0,cats,cats,true,false,"""","2021-03-16 18:10:08",96.8.130.106,"Mozilla/5.0 (Windows NT 10.0; Win64; x64) AppleWebKit/537.36 (KHTML, like Gecko) Chrome/89.0.4389.82 Safari/537.36",WebKit,Chrome,89.0.4389.82,Windows,10.0
30,1,null,"""","""",html-keyboard-response,70,235028,0.0-4.0-0.0-4.8-0.8,cats,dogs,dogs,CDA15,"
      <div style=""position: absolute; top: 2vh; left: 2vw;"">
        <img src=""img/yellow_circle.jpeg"" style=""width:100px;""></img>
        <p>S = cats</p>
      </div>
      <div style=""position: absolute; top: 2vh; right: 2vw;"">
        <img src=""img/yellow_square.jpeg"" style=""width:100px;""></img>
        <p>L = dogs</p>
      </div>",null,test,1,"""","""","""","""","""","""","""","""","""","""","2021-03-16 18:10:08",96.8.130.106,"Mozilla/5.0 (Windows NT 10.0; Win64; x64) AppleWebKit/537.36 (KHTML, like Gecko) Chrome/89.0.4389.82 Safari/537.36",WebKit,Chrome,89.0.4389.82,Windows,10.0
30,1,null,"""","""",html-keyboard-response,71,235542,0.0-4.0-0.0-0.9,cats,dogs,dogs,CDA15,"<p class=""fixation"">+</p>",null,test,1,"""","""","""","""","""","""","""","""","""","""","2021-03-16 18:10:08",96.8.130.106,"Mozilla/5.0 (Windows NT 10.0; Win64; x64) AppleWebKit/537.36 (KHTML, like Gecko) Chrome/89.0.4389.82 Safari/537.36",WebKit,Chrome,89.0.4389.82,Windows,10.0
30,1,213.24000001186505,"""",respond,html-keyboard-response,72,235942,0.0-4.0-0.0-1.9,cats,dogs,dogs,CDA15,"<img src=""img/7S_10C_yellow10.jpg"" style=""width:500px;""></img>",83,test,1,10,1,img/7S_10C_yellow10.jpg,0,0,cats,cats,true,true,"""","2021-03-16 18:10:08",96.8.130.106,"Mozilla/5.0 (Windows NT 10.0; Win64; x64) AppleWebKit/537.36 (KHTML, like Gecko) Chrome/89.0.4389.82 Safari/537.36",WebKit,Chrome,89.0.4389.82,Windows,10.0
30,1,null,"""",reward-feedback,audio-keyboard-response,73,237450,0.0-4.0-0.0-3.9-0.9,cats,dogs,dogs,CDA15,mp3/reward-coin-drop.mp3,null,test,1,"""","""","""","""","""","""","""","""","""","""","2021-03-16 18:10:08",96.8.130.106,"Mozilla/5.0 (Windows NT 10.0; Win64; x64) AppleWebKit/537.36 (KHTML, like Gecko) Chrome/89.0.4389.82 Safari/537.36",WebKit,Chrome,89.0.4389.82,Windows,10.0
30,1,null,"""","""",html-keyboard-response,74,237964,0.0-4.0-0.0-0.10,cats,dogs,dogs,CDA15,"<p class=""fixation"">+</p>",null,test,1,"""","""","""","""","""","""","""","""","""","""","2021-03-16 18:10:08",96.8.130.106,"Mozilla/5.0 (Windows NT 10.0; Win64; x64) AppleWebKit/537.36 (KHTML, like Gecko) Chrome/89.0.4389.82 Safari/537.36",WebKit,Chrome,89.0.4389.82,Windows,10.0
30,1,287.02999994857237,"""",respond,html-keyboard-response,75,238352,0.0-4.0-0.0-1.10,cats,dogs,dogs,CDA15,"<img src=""img/7C_10S_yellow4.jpg"" style=""width:500px;""></img>",83,test,1,11,1,img/7C_10S_yellow4.jpg,0,0,dogs,cats,false,false,"""","2021-03-16 18:10:08",96.8.130.106,"Mozilla/5.0 (Windows NT 10.0; Win64; x64) AppleWebKit/537.36 (KHTML, like Gecko) Chrome/89.0.4389.82 Safari/537.36",WebKit,Chrome,89.0.4389.82,Windows,10.0
30,1,null,"""","""",html-keyboard-response,76,239858,0.0-4.0-0.0-4.10-0.10,cats,dogs,dogs,CDA15,"
      <div style=""position: absolute; top: 2vh; left: 2vw;"">
        <img src=""img/yellow_circle.jpeg"" style=""width:100px;""></img>
        <p>S = cats</p>
      </div>
      <div style=""position: absolute; top: 2vh; right: 2vw;"">
        <img src=""img/yellow_square.jpeg"" style=""width:100px;""></img>
        <p>L = dogs</p>
      </div>",null,test,1,"""","""","""","""","""","""","""","""","""","""","2021-03-16 18:10:08",96.8.130.106,"Mozilla/5.0 (Windows NT 10.0; Win64; x64) AppleWebKit/537.36 (KHTML, like Gecko) Chrome/89.0.4389.82 Safari/537.36",WebKit,Chrome,89.0.4389.82,Windows,10.0
30,1,null,"""","""",html-keyboard-response,77,240372,0.0-4.0-0.0-0.11,cats,dogs,dogs,CDA15,"<p class=""fixation"">+</p>",null,test,1,"""","""","""","""","""","""","""","""","""","""","2021-03-16 18:10:08",96.8.130.106,"Mozilla/5.0 (Windows NT 10.0; Win64; x64) AppleWebKit/537.36 (KHTML, like Gecko) Chrome/89.0.4389.82 Safari/537.36",WebKit,Chrome,89.0.4389.82,Windows,10.0
30,1,327.56000000517815,"""",respond,html-keyboard-response,78,240752,0.0-4.0-0.0-1.11,cats,dogs,dogs,CDA15,"<img src=""img/7S_10C_yellow10.jpg"" style=""width:500px;""></img>",83,test,1,12,0,img/7S_10C_yellow10.jpg,0,1,cats,cats,true,false,"""","2021-03-16 18:10:08",96.8.130.106,"Mozilla/5.0 (Windows NT 10.0; Win64; x64) AppleWebKit/537.36 (KHTML, like Gecko) Chrome/89.0.4389.82 Safari/537.36",WebKit,Chrome,89.0.4389.82,Windows,10.0
30,1,null,"""","""",html-keyboard-response,79,242262,0.0-4.0-0.0-4.11-0.11,cats,dogs,dogs,CDA15,"
      <div style=""position: absolute; top: 2vh; left: 2vw;"">
        <img src=""img/yellow_circle.jpeg"" style=""width:100px;""></img>
        <p>S = cats</p>
      </div>
      <div style=""position: absolute; top: 2vh; right: 2vw;"">
        <img src=""img/yellow_square.jpeg"" style=""width:100px;""></img>
        <p>L = dogs</p>
      </div>",null,test,1,"""","""","""","""","""","""","""","""","""","""","2021-03-16 18:10:08",96.8.130.106,"Mozilla/5.0 (Windows NT 10.0; Win64; x64) AppleWebKit/537.36 (KHTML, like Gecko) Chrome/89.0.4389.82 Safari/537.36",WebKit,Chrome,89.0.4389.82,Windows,10.0
30,1,null,"""","""",html-keyboard-response,80,242782,0.0-4.0-0.0-0.12,cats,dogs,dogs,CDA15,"<p class=""fixation"">+</p>",null,test,1,"""","""","""","""","""","""","""","""","""","""","2021-03-16 18:10:08",96.8.130.106,"Mozilla/5.0 (Windows NT 10.0; Win64; x64) AppleWebKit/537.36 (KHTML, like Gecko) Chrome/89.0.4389.82 Safari/537.36",WebKit,Chrome,89.0.4389.82,Windows,10.0
30,1,328.09000002453104,"""",respond,html-keyboard-response,81,243170,0.0-4.0-0.0-1.12,cats,dogs,dogs,CDA15,"<img src=""img/7C_10S_yellow4.jpg"" style=""width:500px;""></img>",76,test,1,13,1,img/7C_10S_yellow4.jpg,0,1,dogs,dogs,true,true,"""","2021-03-16 18:10:08",96.8.130.106,"Mozilla/5.0 (Windows NT 10.0; Win64; x64) AppleWebKit/537.36 (KHTML, like Gecko) Chrome/89.0.4389.82 Safari/537.36",WebKit,Chrome,89.0.4389.82,Windows,10.0
30,1,null,"""",reward-feedback,audio-keyboard-response,82,244672,0.0-4.0-0.0-3.12-0.12,cats,dogs,dogs,CDA15,mp3/reward-coin-drop.mp3,null,test,1,"""","""","""","""","""","""","""","""","""","""","2021-03-16 18:10:08",96.8.130.106,"Mozilla/5.0 (Windows NT 10.0; Win64; x64) AppleWebKit/537.36 (KHTML, like Gecko) Chrome/89.0.4389.82 Safari/537.36",WebKit,Chrome,89.0.4389.82,Windows,10.0
30,1,null,"""","""",html-keyboard-response,83,245182,0.0-4.0-0.0-0.13,cats,dogs,dogs,CDA15,"<p class=""fixation"">+</p>",null,test,1,"""","""","""","""","""","""","""","""","""","""","2021-03-16 18:10:08",96.8.130.106,"Mozilla/5.0 (Windows NT 10.0; Win64; x64) AppleWebKit/537.36 (KHTML, like Gecko) Chrome/89.0.4389.82 Safari/537.36",WebKit,Chrome,89.0.4389.82,Windows,10.0
30,1,379.7599999816157,"""",respond,html-keyboard-response,84,245564,0.0-4.0-0.0-1.13,cats,dogs,dogs,CDA15,"<img src=""img/7S_10C_yellow8.jpg"" style=""width:500px;""></img>",76,test,1,14,1,img/7S_10C_yellow8.jpg,0,1,cats,dogs,false,false,"""","2021-03-16 18:10:08",96.8.130.106,"Mozilla/5.0 (Windows NT 10.0; Win64; x64) AppleWebKit/537.36 (KHTML, like Gecko) Chrome/89.0.4389.82 Safari/537.36",WebKit,Chrome,89.0.4389.82,Windows,10.0
30,1,null,"""","""",html-keyboard-response,85,247077,0.0-4.0-0.0-4.13-0.13,cats,dogs,dogs,CDA15,"
      <div style=""position: absolute; top: 2vh; left: 2vw;"">
        <img src=""img/yellow_circle.jpeg"" style=""width:100px;""></img>
        <p>S = cats</p>
      </div>
      <div style=""position: absolute; top: 2vh; right: 2vw;"">
        <img src=""img/yellow_square.jpeg"" style=""width:100px;""></img>
        <p>L = dogs</p>
      </div>",null,test,1,"""","""","""","""","""","""","""","""","""","""","2021-03-16 18:10:08",96.8.130.106,"Mozilla/5.0 (Windows NT 10.0; Win64; x64) AppleWebKit/537.36 (KHTML, like Gecko) Chrome/89.0.4389.82 Safari/537.36",WebKit,Chrome,89.0.4389.82,Windows,10.0
30,1,null,"""","""",html-keyboard-response,86,247590,0.0-4.0-0.0-0.14,cats,dogs,dogs,CDA15,"<p class=""fixation"">+</p>",null,test,1,"""","""","""","""","""","""","""","""","""","""","2021-03-16 18:10:08",96.8.130.106,"Mozilla/5.0 (Windows NT 10.0; Win64; x64) AppleWebKit/537.36 (KHTML, like Gecko) Chrome/89.0.4389.82 Safari/537.36",WebKit,Chrome,89.0.4389.82,Windows,10.0
30,1,350.6649999762885,"""",respond,html-keyboard-response,87,247967,0.0-4.0-0.0-1.14,cats,dogs,dogs,CDA15,"<img src=""img/7C_10S_yellow6.jpg"" style=""width:500px;""></img>",76,test,1,15,0,img/7C_10S_yellow6.jpg,1,1,dogs,dogs,true,false,"""","2021-03-16 18:10:08",96.8.130.106,"Mozilla/5.0 (Windows NT 10.0; Win64; x64) AppleWebKit/537.36 (KHTML, like Gecko) Chrome/89.0.4389.82 Safari/537.36",WebKit,Chrome,89.0.4389.82,Windows,10.0
30,1,null,"""","""",html-keyboard-response,88,249482,0.0-4.0-0.0-4.14-0.14,cats,dogs,dogs,CDA15,"
      <div style=""position: absolute; top: 2vh; left: 2vw;"">
        <img src=""img/yellow_circle.jpeg"" style=""width:100px;""></img>
        <p>S = cats</p>
      </div>
      <div style=""position: absolute; top: 2vh; right: 2vw;"">
        <img src=""img/yellow_square.jpeg"" style=""width:100px;""></img>
        <p>L = dogs</p>
      </div>",null,test,1,"""","""","""","""","""","""","""","""","""","""","2021-03-16 18:10:08",96.8.130.106,"Mozilla/5.0 (Windows NT 10.0; Win64; x64) AppleWebKit/537.36 (KHTML, like Gecko) Chrome/89.0.4389.82 Safari/537.36",WebKit,Chrome,89.0.4389.82,Windows,10.0
30,1,null,"""","""",html-keyboard-response,89,249992,0.0-4.0-0.0-0.15,cats,dogs,dogs,CDA15,"<p class=""fixation"">+</p>",null,test,1,"""","""","""","""","""","""","""","""","""","""","2021-03-16 18:10:08",96.8.130.106,"Mozilla/5.0 (Windows NT 10.0; Win64; x64) AppleWebKit/537.36 (KHTML, like Gecko) Chrome/89.0.4389.82 Safari/537.36",WebKit,Chrome,89.0.4389.82,Windows,10.0
30,1,278.52499997243285,"""",respond,html-keyboard-response,90,250372,0.0-4.0-0.0-1.15,cats,dogs,dogs,CDA15,"<img src=""img/7C_10S_yellow5.jpg"" style=""width:500px;""></img>",83,test,1,16,1,img/7C_10S_yellow5.jpg,1,0,dogs,cats,false,false,"""","2021-03-16 18:10:08",96.8.130.106,"Mozilla/5.0 (Windows NT 10.0; Win64; x64) AppleWebKit/537.36 (KHTML, like Gecko) Chrome/89.0.4389.82 Safari/537.36",WebKit,Chrome,89.0.4389.82,Windows,10.0
30,1,null,"""","""",html-keyboard-response,91,251877,0.0-4.0-0.0-4.15-0.15,cats,dogs,dogs,CDA15,"
      <div style=""position: absolute; top: 2vh; left: 2vw;"">
        <img src=""img/yellow_circle.jpeg"" style=""width:100px;""></img>
        <p>S = cats</p>
      </div>
      <div style=""position: absolute; top: 2vh; right: 2vw;"">
        <img src=""img/yellow_square.jpeg"" style=""width:100px;""></img>
        <p>L = dogs</p>
      </div>",null,test,1,"""","""","""","""","""","""","""","""","""","""","2021-03-16 18:10:08",96.8.130.106,"Mozilla/5.0 (Windows NT 10.0; Win64; x64) AppleWebKit/537.36 (KHTML, like Gecko) Chrome/89.0.4389.82 Safari/537.36",WebKit,Chrome,89.0.4389.82,Windows,10.0
30,1,null,"""","""",html-keyboard-response,92,252382,0.0-4.0-0.0-0.16,cats,dogs,dogs,CDA15,"<p class=""fixation"">+</p>",null,test,1,"""","""","""","""","""","""","""","""","""","""","2021-03-16 18:10:08",96.8.130.106,"Mozilla/5.0 (Windows NT 10.0; Win64; x64) AppleWebKit/537.36 (KHTML, like Gecko) Chrome/89.0.4389.82 Safari/537.36",WebKit,Chrome,89.0.4389.82,Windows,10.0
30,1,257.7049999963492,"""",respond,html-keyboard-response,93,252763,0.0-4.0-0.0-1.16,cats,dogs,dogs,CDA15,"<img src=""img/7S_10C_yellow8.jpg"" style=""width:500px;""></img>",83,test,1,17,0,img/7S_10C_yellow8.jpg,1,1,cats,cats,true,false,"""","2021-03-16 18:10:08",96.8.130.106,"Mozilla/5.0 (Windows NT 10.0; Win64; x64) AppleWebKit/537.36 (KHTML, like Gecko) Chrome/89.0.4389.82 Safari/537.36",WebKit,Chrome,89.0.4389.82,Windows,10.0
30,1,null,"""","""",html-keyboard-response,94,254277,0.0-4.0-0.0-4.16-0.16,cats,dogs,dogs,CDA15,"
      <div style=""position: absolute; top: 2vh; left: 2vw;"">
        <img src=""img/yellow_circle.jpeg"" style=""width:100px;""></img>
        <p>S = cats</p>
      </div>
      <div style=""position: absolute; top: 2vh; right: 2vw;"">
        <img src=""img/yellow_square.jpeg"" style=""width:100px;""></img>
        <p>L = dogs</p>
      </div>",null,test,1,"""","""","""","""","""","""","""","""","""","""","2021-03-16 18:10:08",96.8.130.106,"Mozilla/5.0 (Windows NT 10.0; Win64; x64) AppleWebKit/537.36 (KHTML, like Gecko) Chrome/89.0.4389.82 Safari/537.36",WebKit,Chrome,89.0.4389.82,Windows,10.0
30,1,null,"""","""",html-keyboard-response,95,254780,0.0-4.0-0.0-0.17,cats,dogs,dogs,CDA15,"<p class=""fixation"">+</p>",null,test,1,"""","""","""","""","""","""","""","""","""","""","2021-03-16 18:10:08",96.8.130.106,"Mozilla/5.0 (Windows NT 10.0; Win64; x64) AppleWebKit/537.36 (KHTML, like Gecko) Chrome/89.0.4389.82 Safari/537.36",WebKit,Chrome,89.0.4389.82,Windows,10.0
30,1,412.62499999720603,"""",respond,html-keyboard-response,96,255194,0.0-4.0-0.0-1.17,cats,dogs,dogs,CDA15,"<img src=""img/7S_10C_yellow7.jpg"" style=""width:500px;""></img>",83,test,1,18,0,img/7S_10C_yellow7.jpg,0,1,cats,cats,true,false,"""","2021-03-16 18:10:08",96.8.130.106,"Mozilla/5.0 (Windows NT 10.0; Win64; x64) AppleWebKit/537.36 (KHTML, like Gecko) Chrome/89.0.4389.82 Safari/537.36",WebKit,Chrome,89.0.4389.82,Windows,10.0
30,1,null,"""","""",html-keyboard-response,97,256701,0.0-4.0-0.0-4.17-0.17,cats,dogs,dogs,CDA15,"
      <div style=""position: absolute; top: 2vh; left: 2vw;"">
        <img src=""img/yellow_circle.jpeg"" style=""width:100px;""></img>
        <p>S = cats</p>
      </div>
      <div style=""position: absolute; top: 2vh; right: 2vw;"">
        <img src=""img/yellow_square.jpeg"" style=""width:100px;""></img>
        <p>L = dogs</p>
      </div>",null,test,1,"""","""","""","""","""","""","""","""","""","""","2021-03-16 18:10:08",96.8.130.106,"Mozilla/5.0 (Windows NT 10.0; Win64; x64) AppleWebKit/537.36 (KHTML, like Gecko) Chrome/89.0.4389.82 Safari/537.36",WebKit,Chrome,89.0.4389.82,Windows,10.0
30,1,null,"""","""",html-keyboard-response,98,257214,0.0-4.0-0.0-0.18,cats,dogs,dogs,CDA15,"<p class=""fixation"">+</p>",null,test,1,"""","""","""","""","""","""","""","""","""","""","2021-03-16 18:10:08",96.8.130.106,"Mozilla/5.0 (Windows NT 10.0; Win64; x64) AppleWebKit/537.36 (KHTML, like Gecko) Chrome/89.0.4389.82 Safari/537.36",WebKit,Chrome,89.0.4389.82,Windows,10.0
30,1,242.14999994728714,"""",respond,html-keyboard-response,99,257601,0.0-4.0-0.0-1.18,cats,dogs,dogs,CDA15,"<img src=""img/7S_10C_yellow10.jpg"" style=""width:500px;""></img>",76,test,1,19,1,img/7S_10C_yellow10.jpg,0,1,cats,dogs,false,false,"""","2021-03-16 18:10:08",96.8.130.106,"Mozilla/5.0 (Windows NT 10.0; Win64; x64) AppleWebKit/537.36 (KHTML, like Gecko) Chrome/89.0.4389.82 Safari/537.36",WebKit,Chrome,89.0.4389.82,Windows,10.0
30,1,null,"""","""",html-keyboard-response,100,259104,0.0-4.0-0.0-4.18-0.18,cats,dogs,dogs,CDA15,"
      <div style=""position: absolute; top: 2vh; left: 2vw;"">
        <img src=""img/yellow_circle.jpeg"" style=""width:100px;""></img>
        <p>S = cats</p>
      </div>
      <div style=""position: absolute; top: 2vh; right: 2vw;"">
        <img src=""img/yellow_square.jpeg"" style=""width:100px;""></img>
        <p>L = dogs</p>
      </div>",null,test,1,"""","""","""","""","""","""","""","""","""","""","2021-03-16 18:10:08",96.8.130.106,"Mozilla/5.0 (Windows NT 10.0; Win64; x64) AppleWebKit/537.36 (KHTML, like Gecko) Chrome/89.0.4389.82 Safari/537.36",WebKit,Chrome,89.0.4389.82,Windows,10.0
30,1,null,"""","""",html-keyboard-response,101,259616,0.0-4.0-0.0-0.19,cats,dogs,dogs,CDA15,"<p class=""fixation"">+</p>",null,test,1,"""","""","""","""","""","""","""","""","""","""","2021-03-16 18:10:08",96.8.130.106,"Mozilla/5.0 (Windows NT 10.0; Win64; x64) AppleWebKit/537.36 (KHTML, like Gecko) Chrome/89.0.4389.82 Safari/537.36",WebKit,Chrome,89.0.4389.82,Windows,10.0
30,1,372.84500000532717,"""",respond,html-keyboard-response,102,259993,0.0-4.0-0.0-1.19,cats,dogs,dogs,CDA15,"<img src=""img/7C_10S_yellow5.jpg"" style=""width:500px;""></img>",76,test,1,20,1,img/7C_10S_yellow5.jpg,1,1,dogs,dogs,true,true,"""","2021-03-16 18:10:08",96.8.130.106,"Mozilla/5.0 (Windows NT 10.0; Win64; x64) AppleWebKit/537.36 (KHTML, like Gecko) Chrome/89.0.4389.82 Safari/537.36",WebKit,Chrome,89.0.4389.82,Windows,10.0
30,1,null,"""",reward-feedback,audio-keyboard-response,103,261497,0.0-4.0-0.0-3.19-0.19,cats,dogs,dogs,CDA15,mp3/reward-coin-drop.mp3,null,test,1,"""","""","""","""","""","""","""","""","""","""","2021-03-16 18:10:08",96.8.130.106,"Mozilla/5.0 (Windows NT 10.0; Win64; x64) AppleWebKit/537.36 (KHTML, like Gecko) Chrome/89.0.4389.82 Safari/537.36",WebKit,Chrome,89.0.4389.82,Windows,10.0
30,1,null,"""","""",html-keyboard-response,104,262007,0.0-4.0-0.0-0.20,cats,dogs,dogs,CDA15,"<p class=""fixation"">+</p>",null,test,1,"""","""","""","""","""","""","""","""","""","""","2021-03-16 18:10:08",96.8.130.106,"Mozilla/5.0 (Windows NT 10.0; Win64; x64) AppleWebKit/537.36 (KHTML, like Gecko) Chrome/89.0.4389.82 Safari/537.36",WebKit,Chrome,89.0.4389.82,Windows,10.0
30,1,394.61000001756474,"""",respond,html-keyboard-response,105,262404,0.0-4.0-0.0-1.20,cats,dogs,dogs,CDA15,"<img src=""img/7C_10S_yellow5.jpg"" style=""width:500px;""></img>",83,test,1,21,0,img/7C_10S_yellow5.jpg,1,1,dogs,cats,false,false,"""","2021-03-16 18:10:08",96.8.130.106,"Mozilla/5.0 (Windows NT 10.0; Win64; x64) AppleWebKit/537.36 (KHTML, like Gecko) Chrome/89.0.4389.82 Safari/537.36",WebKit,Chrome,89.0.4389.82,Windows,10.0
30,1,null,"""","""",html-keyboard-response,106,263907,0.0-4.0-0.0-4.20-0.20,cats,dogs,dogs,CDA15,"
      <div style=""position: absolute; top: 2vh; left: 2vw;"">
        <img src=""img/yellow_circle.jpeg"" style=""width:100px;""></img>
        <p>S = cats</p>
      </div>
      <div style=""position: absolute; top: 2vh; right: 2vw;"">
        <img src=""img/yellow_square.jpeg"" style=""width:100px;""></img>
        <p>L = dogs</p>
      </div>",null,test,1,"""","""","""","""","""","""","""","""","""","""","2021-03-16 18:10:08",96.8.130.106,"Mozilla/5.0 (Windows NT 10.0; Win64; x64) AppleWebKit/537.36 (KHTML, like Gecko) Chrome/89.0.4389.82 Safari/537.36",WebKit,Chrome,89.0.4389.82,Windows,10.0
30,1,null,"""","""",html-keyboard-response,107,264417,0.0-4.0-0.0-0.21,cats,dogs,dogs,CDA15,"<p class=""fixation"">+</p>",null,test,1,"""","""","""","""","""","""","""","""","""","""","2021-03-16 18:10:08",96.8.130.106,"Mozilla/5.0 (Windows NT 10.0; Win64; x64) AppleWebKit/537.36 (KHTML, like Gecko) Chrome/89.0.4389.82 Safari/537.36",WebKit,Chrome,89.0.4389.82,Windows,10.0
30,1,297.23000002559274,"""",respond,html-keyboard-response,108,264797,0.0-4.0-0.0-1.21,cats,dogs,dogs,CDA15,"<img src=""img/7S_10C_yellow6.jpg"" style=""width:500px;""></img>",83,test,1,22,0,img/7S_10C_yellow6.jpg,1,1,cats,cats,true,false,"""","2021-03-16 18:10:08",96.8.130.106,"Mozilla/5.0 (Windows NT 10.0; Win64; x64) AppleWebKit/537.36 (KHTML, like Gecko) Chrome/89.0.4389.82 Safari/537.36",WebKit,Chrome,89.0.4389.82,Windows,10.0
30,1,null,"""","""",html-keyboard-response,109,266317,0.0-4.0-0.0-4.21-0.21,cats,dogs,dogs,CDA15,"
      <div style=""position: absolute; top: 2vh; left: 2vw;"">
        <img src=""img/yellow_circle.jpeg"" style=""width:100px;""></img>
        <p>S = cats</p>
      </div>
      <div style=""position: absolute; top: 2vh; right: 2vw;"">
        <img src=""img/yellow_square.jpeg"" style=""width:100px;""></img>
        <p>L = dogs</p>
      </div>",null,test,1,"""","""","""","""","""","""","""","""","""","""","2021-03-16 18:10:08",96.8.130.106,"Mozilla/5.0 (Windows NT 10.0; Win64; x64) AppleWebKit/537.36 (KHTML, like Gecko) Chrome/89.0.4389.82 Safari/537.36",WebKit,Chrome,89.0.4389.82,Windows,10.0
30,1,null,"""","""",html-keyboard-response,110,266827,0.0-4.0-0.0-0.22,cats,dogs,dogs,CDA15,"<p class=""fixation"">+</p>",null,test,1,"""","""","""","""","""","""","""","""","""","""","2021-03-16 18:10:08",96.8.130.106,"Mozilla/5.0 (Windows NT 10.0; Win64; x64) AppleWebKit/537.36 (KHTML, like Gecko) Chrome/89.0.4389.82 Safari/537.36",WebKit,Chrome,89.0.4389.82,Windows,10.0
30,1,339.55999999307096,"""",respond,html-keyboard-response,111,267217,0.0-4.0-0.0-1.22,cats,dogs,dogs,CDA15,"<img src=""img/7C_10S_yellow6.jpg"" style=""width:500px;""></img>",83,test,1,23,1,img/7C_10S_yellow6.jpg,0,1,dogs,cats,false,false,"""","2021-03-16 18:10:08",96.8.130.106,"Mozilla/5.0 (Windows NT 10.0; Win64; x64) AppleWebKit/537.36 (KHTML, like Gecko) Chrome/89.0.4389.82 Safari/537.36",WebKit,Chrome,89.0.4389.82,Windows,10.0
30,1,null,"""","""",html-keyboard-response,112,268722,0.0-4.0-0.0-4.22-0.22,cats,dogs,dogs,CDA15,"
      <div style=""position: absolute; top: 2vh; left: 2vw;"">
        <img src=""img/yellow_circle.jpeg"" style=""width:100px;""></img>
        <p>S = cats</p>
      </div>
      <div style=""position: absolute; top: 2vh; right: 2vw;"">
        <img src=""img/yellow_square.jpeg"" style=""width:100px;""></img>
        <p>L = dogs</p>
      </div>",null,test,1,"""","""","""","""","""","""","""","""","""","""","2021-03-16 18:10:08",96.8.130.106,"Mozilla/5.0 (Windows NT 10.0; Win64; x64) AppleWebKit/537.36 (KHTML, like Gecko) Chrome/89.0.4389.82 Safari/537.36",WebKit,Chrome,89.0.4389.82,Windows,10.0
30,1,null,"""","""",html-keyboard-response,113,269236,0.0-4.0-0.0-0.23,cats,dogs,dogs,CDA15,"<p class=""fixation"">+</p>",null,test,1,"""","""","""","""","""","""","""","""","""","""","2021-03-16 18:10:08",96.8.130.106,"Mozilla/5.0 (Windows NT 10.0; Win64; x64) AppleWebKit/537.36 (KHTML, like Gecko) Chrome/89.0.4389.82 Safari/537.36",WebKit,Chrome,89.0.4389.82,Windows,10.0
30,1,283.2499999785796,"""",respond,html-keyboard-response,114,269622,0.0-4.0-0.0-1.23,cats,dogs,dogs,CDA15,"<img src=""img/7S_10C_yellow8.jpg"" style=""width:500px;""></img>",76,test,1,24,1,img/7S_10C_yellow8.jpg,0,2,cats,dogs,false,false,"""","2021-03-16 18:10:08",96.8.130.106,"Mozilla/5.0 (Windows NT 10.0; Win64; x64) AppleWebKit/537.36 (KHTML, like Gecko) Chrome/89.0.4389.82 Safari/537.36",WebKit,Chrome,89.0.4389.82,Windows,10.0
30,1,null,"""","""",html-keyboard-response,115,271127,0.0-4.0-0.0-4.23-0.23,cats,dogs,dogs,CDA15,"
      <div style=""position: absolute; top: 2vh; left: 2vw;"">
        <img src=""img/yellow_circle.jpeg"" style=""width:100px;""></img>
        <p>S = cats</p>
      </div>
      <div style=""position: absolute; top: 2vh; right: 2vw;"">
        <img src=""img/yellow_square.jpeg"" style=""width:100px;""></img>
        <p>L = dogs</p>
      </div>",null,test,1,"""","""","""","""","""","""","""","""","""","""","2021-03-16 18:10:08",96.8.130.106,"Mozilla/5.0 (Windows NT 10.0; Win64; x64) AppleWebKit/537.36 (KHTML, like Gecko) Chrome/89.0.4389.82 Safari/537.36",WebKit,Chrome,89.0.4389.82,Windows,10.0
30,1,null,"""","""",html-keyboard-response,116,271637,0.0-4.0-0.0-0.24,cats,dogs,dogs,CDA15,"<p class=""fixation"">+</p>",null,test,1,"""","""","""","""","""","""","""","""","""","""","2021-03-16 18:10:08",96.8.130.106,"Mozilla/5.0 (Windows NT 10.0; Win64; x64) AppleWebKit/537.36 (KHTML, like Gecko) Chrome/89.0.4389.82 Safari/537.36",WebKit,Chrome,89.0.4389.82,Windows,10.0
30,1,312.8700000233948,"""",respond,html-keyboard-response,117,272023,0.0-4.0-0.0-1.24,cats,dogs,dogs,CDA15,"<img src=""img/7C_10S_yellow6.jpg"" style=""width:500px;""></img>",83,test,1,25,0,img/7C_10S_yellow6.jpg,1,2,dogs,cats,false,false,"""","2021-03-16 18:10:08",96.8.130.106,"Mozilla/5.0 (Windows NT 10.0; Win64; x64) AppleWebKit/537.36 (KHTML, like Gecko) Chrome/89.0.4389.82 Safari/537.36",WebKit,Chrome,89.0.4389.82,Windows,10.0
30,1,null,"""","""",html-keyboard-response,118,273530,0.0-4.0-0.0-4.24-0.24,cats,dogs,dogs,CDA15,"
      <div style=""position: absolute; top: 2vh; left: 2vw;"">
        <img src=""img/yellow_circle.jpeg"" style=""width:100px;""></img>
        <p>S = cats</p>
      </div>
      <div style=""position: absolute; top: 2vh; right: 2vw;"">
        <img src=""img/yellow_square.jpeg"" style=""width:100px;""></img>
        <p>L = dogs</p>
      </div>",null,test,1,"""","""","""","""","""","""","""","""","""","""","2021-03-16 18:10:08",96.8.130.106,"Mozilla/5.0 (Windows NT 10.0; Win64; x64) AppleWebKit/537.36 (KHTML, like Gecko) Chrome/89.0.4389.82 Safari/537.36",WebKit,Chrome,89.0.4389.82,Windows,10.0
30,1,null,"""","""",html-keyboard-response,119,274043,0.0-4.0-0.0-0.25,cats,dogs,dogs,CDA15,"<p class=""fixation"">+</p>",null,test,1,"""","""","""","""","""","""","""","""","""","""","2021-03-16 18:10:08",96.8.130.106,"Mozilla/5.0 (Windows NT 10.0; Win64; x64) AppleWebKit/537.36 (KHTML, like Gecko) Chrome/89.0.4389.82 Safari/537.36",WebKit,Chrome,89.0.4389.82,Windows,10.0
30,1,384.5149999833666,"""",respond,html-keyboard-response,120,274429,0.0-4.0-0.0-1.25,cats,dogs,dogs,CDA15,"<img src=""img/7C_10S_yellow5.jpg"" style=""width:500px;""></img>",83,test,1,26,1,img/7C_10S_yellow5.jpg,1,2,dogs,cats,false,false,"""","2021-03-16 18:10:08",96.8.130.106,"Mozilla/5.0 (Windows NT 10.0; Win64; x64) AppleWebKit/537.36 (KHTML, like Gecko) Chrome/89.0.4389.82 Safari/537.36",WebKit,Chrome,89.0.4389.82,Windows,10.0
30,1,null,"""","""",html-keyboard-response,121,275944,0.0-4.0-0.0-4.25-0.25,cats,dogs,dogs,CDA15,"
      <div style=""position: absolute; top: 2vh; left: 2vw;"">
        <img src=""img/yellow_circle.jpeg"" style=""width:100px;""></img>
        <p>S = cats</p>
      </div>
      <div style=""position: absolute; top: 2vh; right: 2vw;"">
        <img src=""img/yellow_square.jpeg"" style=""width:100px;""></img>
        <p>L = dogs</p>
      </div>",null,test,1,"""","""","""","""","""","""","""","""","""","""","2021-03-16 18:10:08",96.8.130.106,"Mozilla/5.0 (Windows NT 10.0; Win64; x64) AppleWebKit/537.36 (KHTML, like Gecko) Chrome/89.0.4389.82 Safari/537.36",WebKit,Chrome,89.0.4389.82,Windows,10.0
30,1,null,"""","""",html-keyboard-response,122,276453,0.0-4.0-0.0-0.26,cats,dogs,dogs,CDA15,"<p class=""fixation"">+</p>",null,test,1,"""","""","""","""","""","""","""","""","""","""","2021-03-16 18:10:08",96.8.130.106,"Mozilla/5.0 (Windows NT 10.0; Win64; x64) AppleWebKit/537.36 (KHTML, like Gecko) Chrome/89.0.4389.82 Safari/537.36",WebKit,Chrome,89.0.4389.82,Windows,10.0
30,1,514.0900000114925,"""",respond,html-keyboard-response,123,276968,0.0-4.0-0.0-1.26,cats,dogs,dogs,CDA15,"<img src=""img/7C_10S_yellow5.jpg"" style=""width:500px;""></img>",76,test,1,27,1,img/7C_10S_yellow5.jpg,1,3,dogs,dogs,true,true,"""","2021-03-16 18:10:08",96.8.130.106,"Mozilla/5.0 (Windows NT 10.0; Win64; x64) AppleWebKit/537.36 (KHTML, like Gecko) Chrome/89.0.4389.82 Safari/537.36",WebKit,Chrome,89.0.4389.82,Windows,10.0
30,1,null,"""",reward-feedback,audio-keyboard-response,124,278470,0.0-4.0-0.0-3.26-0.26,cats,dogs,dogs,CDA15,mp3/reward-coin-drop.mp3,null,test,1,"""","""","""","""","""","""","""","""","""","""","2021-03-16 18:10:08",96.8.130.106,"Mozilla/5.0 (Windows NT 10.0; Win64; x64) AppleWebKit/537.36 (KHTML, like Gecko) Chrome/89.0.4389.82 Safari/537.36",WebKit,Chrome,89.0.4389.82,Windows,10.0
30,1,null,"""","""",html-keyboard-response,125,278989,0.0-4.0-0.0-0.27,cats,dogs,dogs,CDA15,"<p class=""fixation"">+</p>",null,test,1,"""","""","""","""","""","""","""","""","""","""","2021-03-16 18:10:08",96.8.130.106,"Mozilla/5.0 (Windows NT 10.0; Win64; x64) AppleWebKit/537.36 (KHTML, like Gecko) Chrome/89.0.4389.82 Safari/537.36",WebKit,Chrome,89.0.4389.82,Windows,10.0
30,1,488.18499996559694,"""",respond,html-keyboard-response,126,279479,0.0-4.0-0.0-1.27,cats,dogs,dogs,CDA15,"<img src=""img/7S_10C_yellow9.jpg"" style=""width:500px;""></img>",76,test,1,28,0,img/7S_10C_yellow9.jpg,1,3,cats,dogs,false,false,"""","2021-03-16 18:10:08",96.8.130.106,"Mozilla/5.0 (Windows NT 10.0; Win64; x64) AppleWebKit/537.36 (KHTML, like Gecko) Chrome/89.0.4389.82 Safari/537.36",WebKit,Chrome,89.0.4389.82,Windows,10.0
30,1,null,"""","""",html-keyboard-response,127,280991,0.0-4.0-0.0-4.27-0.27,cats,dogs,dogs,CDA15,"
      <div style=""position: absolute; top: 2vh; left: 2vw;"">
        <img src=""img/yellow_circle.jpeg"" style=""width:100px;""></img>
        <p>S = cats</p>
      </div>
      <div style=""position: absolute; top: 2vh; right: 2vw;"">
        <img src=""img/yellow_square.jpeg"" style=""width:100px;""></img>
        <p>L = dogs</p>
      </div>",null,test,1,"""","""","""","""","""","""","""","""","""","""","2021-03-16 18:10:08",96.8.130.106,"Mozilla/5.0 (Windows NT 10.0; Win64; x64) AppleWebKit/537.36 (KHTML, like Gecko) Chrome/89.0.4389.82 Safari/537.36",WebKit,Chrome,89.0.4389.82,Windows,10.0
30,1,null,"""","""",html-keyboard-response,128,281496,0.0-4.0-0.0-0.28,cats,dogs,dogs,CDA15,"<p class=""fixation"">+</p>",null,test,1,"""","""","""","""","""","""","""","""","""","""","2021-03-16 18:10:08",96.8.130.106,"Mozilla/5.0 (Windows NT 10.0; Win64; x64) AppleWebKit/537.36 (KHTML, like Gecko) Chrome/89.0.4389.82 Safari/537.36",WebKit,Chrome,89.0.4389.82,Windows,10.0
30,1,297.4650000105612,"""",respond,html-keyboard-response,129,281883,0.0-4.0-0.0-1.28,cats,dogs,dogs,CDA15,"<img src=""img/7C_10S_yellow4.jpg"" style=""width:500px;""></img>",76,test,1,29,0,img/7C_10S_yellow4.jpg,1,3,dogs,dogs,true,false,"""","2021-03-16 18:10:08",96.8.130.106,"Mozilla/5.0 (Windows NT 10.0; Win64; x64) AppleWebKit/537.36 (KHTML, like Gecko) Chrome/89.0.4389.82 Safari/537.36",WebKit,Chrome,89.0.4389.82,Windows,10.0
30,1,null,"""","""",html-keyboard-response,130,283389,0.0-4.0-0.0-4.28-0.28,cats,dogs,dogs,CDA15,"
      <div style=""position: absolute; top: 2vh; left: 2vw;"">
        <img src=""img/yellow_circle.jpeg"" style=""width:100px;""></img>
        <p>S = cats</p>
      </div>
      <div style=""position: absolute; top: 2vh; right: 2vw;"">
        <img src=""img/yellow_square.jpeg"" style=""width:100px;""></img>
        <p>L = dogs</p>
      </div>",null,test,1,"""","""","""","""","""","""","""","""","""","""","2021-03-16 18:10:08",96.8.130.106,"Mozilla/5.0 (Windows NT 10.0; Win64; x64) AppleWebKit/537.36 (KHTML, like Gecko) Chrome/89.0.4389.82 Safari/537.36",WebKit,Chrome,89.0.4389.82,Windows,10.0
30,1,null,"""","""",html-keyboard-response,131,283901,0.0-4.0-0.0-0.29,cats,dogs,dogs,CDA15,"<p class=""fixation"">+</p>",null,test,1,"""","""","""","""","""","""","""","""","""","""","2021-03-16 18:10:08",96.8.130.106,"Mozilla/5.0 (Windows NT 10.0; Win64; x64) AppleWebKit/537.36 (KHTML, like Gecko) Chrome/89.0.4389.82 Safari/537.36",WebKit,Chrome,89.0.4389.82,Windows,10.0
30,1,277.79999998165295,"""",respond,html-keyboard-response,132,284287,0.0-4.0-0.0-1.29,cats,dogs,dogs,CDA15,"<img src=""img/7S_10C_yellow7.jpg"" style=""width:500px;""></img>",76,test,1,30,0,img/7S_10C_yellow7.jpg,1,2,cats,dogs,false,false,"""","2021-03-16 18:10:08",96.8.130.106,"Mozilla/5.0 (Windows NT 10.0; Win64; x64) AppleWebKit/537.36 (KHTML, like Gecko) Chrome/89.0.4389.82 Safari/537.36",WebKit,Chrome,89.0.4389.82,Windows,10.0
30,1,null,"""","""",html-keyboard-response,133,285796,0.0-4.0-0.0-4.29-0.29,cats,dogs,dogs,CDA15,"
      <div style=""position: absolute; top: 2vh; left: 2vw;"">
        <img src=""img/yellow_circle.jpeg"" style=""width:100px;""></img>
        <p>S = cats</p>
      </div>
      <div style=""position: absolute; top: 2vh; right: 2vw;"">
        <img src=""img/yellow_square.jpeg"" style=""width:100px;""></img>
        <p>L = dogs</p>
      </div>",null,test,1,"""","""","""","""","""","""","""","""","""","""","2021-03-16 18:10:08",96.8.130.106,"Mozilla/5.0 (Windows NT 10.0; Win64; x64) AppleWebKit/537.36 (KHTML, like Gecko) Chrome/89.0.4389.82 Safari/537.36",WebKit,Chrome,89.0.4389.82,Windows,10.0
30,1,null,"""","""",html-keyboard-response,134,286307,0.0-4.0-0.0-0.30,cats,dogs,dogs,CDA15,"<p class=""fixation"">+</p>",null,test,1,"""","""","""","""","""","""","""","""","""","""","2021-03-16 18:10:08",96.8.130.106,"Mozilla/5.0 (Windows NT 10.0; Win64; x64) AppleWebKit/537.36 (KHTML, like Gecko) Chrome/89.0.4389.82 Safari/537.36",WebKit,Chrome,89.0.4389.82,Windows,10.0
30,1,324.6349999681115,"""",respond,html-keyboard-response,135,286694,0.0-4.0-0.0-1.30,cats,dogs,dogs,CDA15,"<img src=""img/7S_10C_yellow6.jpg"" style=""width:500px;""></img>",83,test,1,31,0,img/7S_10C_yellow6.jpg,1,2,cats,cats,true,false,"""","2021-03-16 18:10:08",96.8.130.106,"Mozilla/5.0 (Windows NT 10.0; Win64; x64) AppleWebKit/537.36 (KHTML, like Gecko) Chrome/89.0.4389.82 Safari/537.36",WebKit,Chrome,89.0.4389.82,Windows,10.0
30,1,null,"""","""",html-keyboard-response,136,288207,0.0-4.0-0.0-4.30-0.30,cats,dogs,dogs,CDA15,"
      <div style=""position: absolute; top: 2vh; left: 2vw;"">
        <img src=""img/yellow_circle.jpeg"" style=""width:100px;""></img>
        <p>S = cats</p>
      </div>
      <div style=""position: absolute; top: 2vh; right: 2vw;"">
        <img src=""img/yellow_square.jpeg"" style=""width:100px;""></img>
        <p>L = dogs</p>
      </div>",null,test,1,"""","""","""","""","""","""","""","""","""","""","2021-03-16 18:10:08",96.8.130.106,"Mozilla/5.0 (Windows NT 10.0; Win64; x64) AppleWebKit/537.36 (KHTML, like Gecko) Chrome/89.0.4389.82 Safari/537.36",WebKit,Chrome,89.0.4389.82,Windows,10.0
30,1,null,"""","""",html-keyboard-response,137,288718,0.0-4.0-0.0-0.31,cats,dogs,dogs,CDA15,"<p class=""fixation"">+</p>",null,test,1,"""","""","""","""","""","""","""","""","""","""","2021-03-16 18:10:08",96.8.130.106,"Mozilla/5.0 (Windows NT 10.0; Win64; x64) AppleWebKit/537.36 (KHTML, like Gecko) Chrome/89.0.4389.82 Safari/537.36",WebKit,Chrome,89.0.4389.82,Windows,10.0
30,1,365.2900000452064,"""",respond,html-keyboard-response,138,289094,0.0-4.0-0.0-1.31,cats,dogs,dogs,CDA15,"<img src=""img/7S_10C_yellow8.jpg"" style=""width:500px;""></img>",83,test,1,32,0,img/7S_10C_yellow8.jpg,0,2,cats,cats,true,false,"""","2021-03-16 18:10:08",96.8.130.106,"Mozilla/5.0 (Windows NT 10.0; Win64; x64) AppleWebKit/537.36 (KHTML, like Gecko) Chrome/89.0.4389.82 Safari/537.36",WebKit,Chrome,89.0.4389.82,Windows,10.0
30,1,null,"""","""",html-keyboard-response,139,290606,0.0-4.0-0.0-4.31-0.31,cats,dogs,dogs,CDA15,"
      <div style=""position: absolute; top: 2vh; left: 2vw;"">
        <img src=""img/yellow_circle.jpeg"" style=""width:100px;""></img>
        <p>S = cats</p>
      </div>
      <div style=""position: absolute; top: 2vh; right: 2vw;"">
        <img src=""img/yellow_square.jpeg"" style=""width:100px;""></img>
        <p>L = dogs</p>
      </div>",null,test,1,"""","""","""","""","""","""","""","""","""","""","2021-03-16 18:10:08",96.8.130.106,"Mozilla/5.0 (Windows NT 10.0; Win64; x64) AppleWebKit/537.36 (KHTML, like Gecko) Chrome/89.0.4389.82 Safari/537.36",WebKit,Chrome,89.0.4389.82,Windows,10.0
30,1,null,"""","""",html-keyboard-response,140,291112,0.0-4.0-0.0-0.32,cats,dogs,dogs,CDA15,"<p class=""fixation"">+</p>",null,test,1,"""","""","""","""","""","""","""","""","""","""","2021-03-16 18:10:08",96.8.130.106,"Mozilla/5.0 (Windows NT 10.0; Win64; x64) AppleWebKit/537.36 (KHTML, like Gecko) Chrome/89.0.4389.82 Safari/537.36",WebKit,Chrome,89.0.4389.82,Windows,10.0
30,1,411.90499998629093,"""",respond,html-keyboard-response,141,291526,0.0-4.0-0.0-1.32,cats,dogs,dogs,CDA15,"<img src=""img/7C_10S_yellow5.jpg"" style=""width:500px;""></img>",83,test,1,33,0,img/7C_10S_yellow5.jpg,0,2,dogs,cats,false,false,"""","2021-03-16 18:10:08",96.8.130.106,"Mozilla/5.0 (Windows NT 10.0; Win64; x64) AppleWebKit/537.36 (KHTML, like Gecko) Chrome/89.0.4389.82 Safari/537.36",WebKit,Chrome,89.0.4389.82,Windows,10.0
30,1,null,"""","""",html-keyboard-response,142,293037,0.0-4.0-0.0-4.32-0.32,cats,dogs,dogs,CDA15,"
      <div style=""position: absolute; top: 2vh; left: 2vw;"">
        <img src=""img/yellow_circle.jpeg"" style=""width:100px;""></img>
        <p>S = cats</p>
      </div>
      <div style=""position: absolute; top: 2vh; right: 2vw;"">
        <img src=""img/yellow_square.jpeg"" style=""width:100px;""></img>
        <p>L = dogs</p>
      </div>",null,test,1,"""","""","""","""","""","""","""","""","""","""","2021-03-16 18:10:08",96.8.130.106,"Mozilla/5.0 (Windows NT 10.0; Win64; x64) AppleWebKit/537.36 (KHTML, like Gecko) Chrome/89.0.4389.82 Safari/537.36",WebKit,Chrome,89.0.4389.82,Windows,10.0
30,1,null,"""","""",html-keyboard-response,143,293543,0.0-4.0-0.0-0.33,cats,dogs,dogs,CDA15,"<p class=""fixation"">+</p>",null,test,1,"""","""","""","""","""","""","""","""","""","""","2021-03-16 18:10:08",96.8.130.106,"Mozilla/5.0 (Windows NT 10.0; Win64; x64) AppleWebKit/537.36 (KHTML, like Gecko) Chrome/89.0.4389.82 Safari/537.36",WebKit,Chrome,89.0.4389.82,Windows,10.0
30,1,430.3800000343472,"""",respond,html-keyboard-response,144,293974,0.0-4.0-0.0-1.33,cats,dogs,dogs,CDA15,"<img src=""img/7C_10S_yellow5.jpg"" style=""width:500px;""></img>",76,test,1,34,1,img/7C_10S_yellow5.jpg,0,2,dogs,dogs,true,true,"""","2021-03-16 18:10:08",96.8.130.106,"Mozilla/5.0 (Windows NT 10.0; Win64; x64) AppleWebKit/537.36 (KHTML, like Gecko) Chrome/89.0.4389.82 Safari/537.36",WebKit,Chrome,89.0.4389.82,Windows,10.0
30,1,null,"""",reward-feedback,audio-keyboard-response,145,295477,0.0-4.0-0.0-3.33-0.33,cats,dogs,dogs,CDA15,mp3/reward-coin-drop.mp3,null,test,1,"""","""","""","""","""","""","""","""","""","""","2021-03-16 18:10:08",96.8.130.106,"Mozilla/5.0 (Windows NT 10.0; Win64; x64) AppleWebKit/537.36 (KHTML, like Gecko) Chrome/89.0.4389.82 Safari/537.36",WebKit,Chrome,89.0.4389.82,Windows,10.0
30,1,null,"""","""",html-keyboard-response,146,295999,0.0-4.0-0.0-0.34,cats,dogs,dogs,CDA15,"<p class=""fixation"">+</p>",null,test,1,"""","""","""","""","""","""","""","""","""","""","2021-03-16 18:10:08",96.8.130.106,"Mozilla/5.0 (Windows NT 10.0; Win64; x64) AppleWebKit/537.36 (KHTML, like Gecko) Chrome/89.0.4389.82 Safari/537.36",WebKit,Chrome,89.0.4389.82,Windows,10.0
30,1,512.2950000222772,"""",respond,html-keyboard-response,147,296512,0.0-4.0-0.0-1.34,cats,dogs,dogs,CDA15,"<img src=""img/7S_10C_yellow10.jpg"" style=""width:500px;""></img>",83,test,1,35,0,img/7S_10C_yellow10.jpg,0,2,cats,cats,true,false,"""","2021-03-16 18:10:08",96.8.130.106,"Mozilla/5.0 (Windows NT 10.0; Win64; x64) AppleWebKit/537.36 (KHTML, like Gecko) Chrome/89.0.4389.82 Safari/537.36",WebKit,Chrome,89.0.4389.82,Windows,10.0
30,1,null,"""","""",html-keyboard-response,148,298022,0.0-4.0-0.0-4.34-0.34,cats,dogs,dogs,CDA15,"
      <div style=""position: absolute; top: 2vh; left: 2vw;"">
        <img src=""img/yellow_circle.jpeg"" style=""width:100px;""></img>
        <p>S = cats</p>
      </div>
      <div style=""position: absolute; top: 2vh; right: 2vw;"">
        <img src=""img/yellow_square.jpeg"" style=""width:100px;""></img>
        <p>L = dogs</p>
      </div>",null,test,1,"""","""","""","""","""","""","""","""","""","""","2021-03-16 18:10:08",96.8.130.106,"Mozilla/5.0 (Windows NT 10.0; Win64; x64) AppleWebKit/537.36 (KHTML, like Gecko) Chrome/89.0.4389.82 Safari/537.36",WebKit,Chrome,89.0.4389.82,Windows,10.0
30,1,null,"""","""",html-keyboard-response,149,298529,0.0-4.0-0.0-0.35,cats,dogs,dogs,CDA15,"<p class=""fixation"">+</p>",null,test,1,"""","""","""","""","""","""","""","""","""","""","2021-03-16 18:10:08",96.8.130.106,"Mozilla/5.0 (Windows NT 10.0; Win64; x64) AppleWebKit/537.36 (KHTML, like Gecko) Chrome/89.0.4389.82 Safari/537.36",WebKit,Chrome,89.0.4389.82,Windows,10.0
30,1,328.41999997617677,"""",respond,html-keyboard-response,150,298929,0.0-4.0-0.0-1.35,cats,dogs,dogs,CDA15,"<img src=""img/7S_10C_yellow9.jpg"" style=""width:500px;""></img>",76,test,1,36,1,img/7S_10C_yellow9.jpg,0,2,cats,dogs,false,false,"""","2021-03-16 18:10:08",96.8.130.106,"Mozilla/5.0 (Windows NT 10.0; Win64; x64) AppleWebKit/537.36 (KHTML, like Gecko) Chrome/89.0.4389.82 Safari/537.36",WebKit,Chrome,89.0.4389.82,Windows,10.0
30,1,null,"""","""",html-keyboard-response,151,300449,0.0-4.0-0.0-4.35-0.35,cats,dogs,dogs,CDA15,"
      <div style=""position: absolute; top: 2vh; left: 2vw;"">
        <img src=""img/yellow_circle.jpeg"" style=""width:100px;""></img>
        <p>S = cats</p>
      </div>
      <div style=""position: absolute; top: 2vh; right: 2vw;"">
        <img src=""img/yellow_square.jpeg"" style=""width:100px;""></img>
        <p>L = dogs</p>
      </div>",null,test,1,"""","""","""","""","""","""","""","""","""","""","2021-03-16 18:10:08",96.8.130.106,"Mozilla/5.0 (Windows NT 10.0; Win64; x64) AppleWebKit/537.36 (KHTML, like Gecko) Chrome/89.0.4389.82 Safari/537.36",WebKit,Chrome,89.0.4389.82,Windows,10.0
30,1,null,"""","""",html-keyboard-response,152,300969,0.0-4.0-0.0-0.36,cats,dogs,dogs,CDA15,"<p class=""fixation"">+</p>",null,test,1,"""","""","""","""","""","""","""","""","""","""","2021-03-16 18:10:08",96.8.130.106,"Mozilla/5.0 (Windows NT 10.0; Win64; x64) AppleWebKit/537.36 (KHTML, like Gecko) Chrome/89.0.4389.82 Safari/537.36",WebKit,Chrome,89.0.4389.82,Windows,10.0
30,1,324.24000004539266,"""",respond,html-keyboard-response,153,301354,0.0-4.0-0.0-1.36,cats,dogs,dogs,CDA15,"<img src=""img/7C_10S_yellow5.jpg"" style=""width:500px;""></img>",76,test,1,37,1,img/7C_10S_yellow5.jpg,1,2,dogs,dogs,true,true,"""","2021-03-16 18:10:08",96.8.130.106,"Mozilla/5.0 (Windows NT 10.0; Win64; x64) AppleWebKit/537.36 (KHTML, like Gecko) Chrome/89.0.4389.82 Safari/537.36",WebKit,Chrome,89.0.4389.82,Windows,10.0
30,1,null,"""",reward-feedback,audio-keyboard-response,154,302858,0.0-4.0-0.0-3.36-0.36,cats,dogs,dogs,CDA15,mp3/reward-coin-drop.mp3,null,test,1,"""","""","""","""","""","""","""","""","""","""","2021-03-16 18:10:08",96.8.130.106,"Mozilla/5.0 (Windows NT 10.0; Win64; x64) AppleWebKit/537.36 (KHTML, like Gecko) Chrome/89.0.4389.82 Safari/537.36",WebKit,Chrome,89.0.4389.82,Windows,10.0
30,1,null,"""","""",html-keyboard-response,155,303379,0.0-4.0-0.0-0.37,cats,dogs,dogs,CDA15,"<p class=""fixation"">+</p>",null,test,1,"""","""","""","""","""","""","""","""","""","""","2021-03-16 18:10:08",96.8.130.106,"Mozilla/5.0 (Windows NT 10.0; Win64; x64) AppleWebKit/537.36 (KHTML, like Gecko) Chrome/89.0.4389.82 Safari/537.36",WebKit,Chrome,89.0.4389.82,Windows,10.0
30,1,374.2000000202097,"""",respond,html-keyboard-response,156,303756,0.0-4.0-0.0-1.37,cats,dogs,dogs,CDA15,"<img src=""img/7C_10S_yellow6.jpg"" style=""width:500px;""></img>",83,test,1,38,0,img/7C_10S_yellow6.jpg,1,2,dogs,cats,false,false,"""","2021-03-16 18:10:08",96.8.130.106,"Mozilla/5.0 (Windows NT 10.0; Win64; x64) AppleWebKit/537.36 (KHTML, like Gecko) Chrome/89.0.4389.82 Safari/537.36",WebKit,Chrome,89.0.4389.82,Windows,10.0
30,1,null,"""","""",html-keyboard-response,157,305262,0.0-4.0-0.0-4.37-0.37,cats,dogs,dogs,CDA15,"
      <div style=""position: absolute; top: 2vh; left: 2vw;"">
        <img src=""img/yellow_circle.jpeg"" style=""width:100px;""></img>
        <p>S = cats</p>
      </div>
      <div style=""position: absolute; top: 2vh; right: 2vw;"">
        <img src=""img/yellow_square.jpeg"" style=""width:100px;""></img>
        <p>L = dogs</p>
      </div>",null,test,1,"""","""","""","""","""","""","""","""","""","""","2021-03-16 18:10:08",96.8.130.106,"Mozilla/5.0 (Windows NT 10.0; Win64; x64) AppleWebKit/537.36 (KHTML, like Gecko) Chrome/89.0.4389.82 Safari/537.36",WebKit,Chrome,89.0.4389.82,Windows,10.0
30,1,null,"""","""",html-keyboard-response,158,305774,0.0-4.0-0.0-0.38,cats,dogs,dogs,CDA15,"<p class=""fixation"">+</p>",null,test,1,"""","""","""","""","""","""","""","""","""","""","2021-03-16 18:10:08",96.8.130.106,"Mozilla/5.0 (Windows NT 10.0; Win64; x64) AppleWebKit/537.36 (KHTML, like Gecko) Chrome/89.0.4389.82 Safari/537.36",WebKit,Chrome,89.0.4389.82,Windows,10.0
30,1,378.5149999894202,"""",respond,html-keyboard-response,159,306153,0.0-4.0-0.0-1.38,cats,dogs,dogs,CDA15,"<img src=""img/7C_10S_yellow3.jpg"" style=""width:500px;""></img>",83,test,1,39,0,img/7C_10S_yellow3.jpg,1,2,dogs,cats,false,false,"""","2021-03-16 18:10:08",96.8.130.106,"Mozilla/5.0 (Windows NT 10.0; Win64; x64) AppleWebKit/537.36 (KHTML, like Gecko) Chrome/89.0.4389.82 Safari/537.36",WebKit,Chrome,89.0.4389.82,Windows,10.0
30,1,null,"""","""",html-keyboard-response,160,307668,0.0-4.0-0.0-4.38-0.38,cats,dogs,dogs,CDA15,"
      <div style=""position: absolute; top: 2vh; left: 2vw;"">
        <img src=""img/yellow_circle.jpeg"" style=""width:100px;""></img>
        <p>S = cats</p>
      </div>
      <div style=""position: absolute; top: 2vh; right: 2vw;"">
        <img src=""img/yellow_square.jpeg"" style=""width:100px;""></img>
        <p>L = dogs</p>
      </div>",null,test,1,"""","""","""","""","""","""","""","""","""","""","2021-03-16 18:10:08",96.8.130.106,"Mozilla/5.0 (Windows NT 10.0; Win64; x64) AppleWebKit/537.36 (KHTML, like Gecko) Chrome/89.0.4389.82 Safari/537.36",WebKit,Chrome,89.0.4389.82,Windows,10.0
30,1,null,"""","""",html-keyboard-response,161,308169,0.0-4.0-0.0-0.39,cats,dogs,dogs,CDA15,"<p class=""fixation"">+</p>",null,test,1,"""","""","""","""","""","""","""","""","""","""","2021-03-16 18:10:08",96.8.130.106,"Mozilla/5.0 (Windows NT 10.0; Win64; x64) AppleWebKit/537.36 (KHTML, like Gecko) Chrome/89.0.4389.82 Safari/537.36",WebKit,Chrome,89.0.4389.82,Windows,10.0
30,1,271.92500000819564,"""",respond,html-keyboard-response,162,308569,0.0-4.0-0.0-1.39,cats,dogs,dogs,CDA15,"<img src=""img/7S_10C_yellow7.jpg"" style=""width:500px;""></img>",83,test,1,40,0,img/7S_10C_yellow7.jpg,1,2,cats,cats,true,false,"""","2021-03-16 18:10:08",96.8.130.106,"Mozilla/5.0 (Windows NT 10.0; Win64; x64) AppleWebKit/537.36 (KHTML, like Gecko) Chrome/89.0.4389.82 Safari/537.36",WebKit,Chrome,89.0.4389.82,Windows,10.0
30,1,null,"""","""",html-keyboard-response,163,310089,0.0-4.0-0.0-4.39-0.39,cats,dogs,dogs,CDA15,"
      <div style=""position: absolute; top: 2vh; left: 2vw;"">
        <img src=""img/yellow_circle.jpeg"" style=""width:100px;""></img>
        <p>S = cats</p>
      </div>
      <div style=""position: absolute; top: 2vh; right: 2vw;"">
        <img src=""img/yellow_square.jpeg"" style=""width:100px;""></img>
        <p>L = dogs</p>
      </div>",null,test,1,"""","""","""","""","""","""","""","""","""","""","2021-03-16 18:10:08",96.8.130.106,"Mozilla/5.0 (Windows NT 10.0; Win64; x64) AppleWebKit/537.36 (KHTML, like Gecko) Chrome/89.0.4389.82 Safari/537.36",WebKit,Chrome,89.0.4389.82,Windows,10.0
30,1,null,"""","""",html-keyboard-response,164,310599,0.0-4.0-0.0-0.40,cats,dogs,dogs,CDA15,"<p class=""fixation"">+</p>",null,test,1,"""","""","""","""","""","""","""","""","""","""","2021-03-16 18:10:08",96.8.130.106,"Mozilla/5.0 (Windows NT 10.0; Win64; x64) AppleWebKit/537.36 (KHTML, like Gecko) Chrome/89.0.4389.82 Safari/537.36",WebKit,Chrome,89.0.4389.82,Windows,10.0
30,1,356.77999997278675,"""",respond,html-keyboard-response,165,310976,0.0-4.0-0.0-1.40,cats,dogs,dogs,CDA15,"<img src=""img/7S_10C_yellow8.jpg"" style=""width:500px;""></img>",83,test,1,41,1,img/7S_10C_yellow8.jpg,0,2,cats,cats,true,true,"""","2021-03-16 18:10:08",96.8.130.106,"Mozilla/5.0 (Windows NT 10.0; Win64; x64) AppleWebKit/537.36 (KHTML, like Gecko) Chrome/89.0.4389.82 Safari/537.36",WebKit,Chrome,89.0.4389.82,Windows,10.0
30,1,null,"""",reward-feedback,audio-keyboard-response,166,312483,0.0-4.0-0.0-3.40-0.40,cats,dogs,dogs,CDA15,mp3/reward-coin-drop.mp3,null,test,1,"""","""","""","""","""","""","""","""","""","""","2021-03-16 18:10:08",96.8.130.106,"Mozilla/5.0 (Windows NT 10.0; Win64; x64) AppleWebKit/537.36 (KHTML, like Gecko) Chrome/89.0.4389.82 Safari/537.36",WebKit,Chrome,89.0.4389.82,Windows,10.0
30,1,null,"""","""",html-keyboard-response,167,312989,0.0-4.0-0.0-0.41,cats,dogs,dogs,CDA15,"<p class=""fixation"">+</p>",null,test,1,"""","""","""","""","""","""","""","""","""","""","2021-03-16 18:10:08",96.8.130.106,"Mozilla/5.0 (Windows NT 10.0; Win64; x64) AppleWebKit/537.36 (KHTML, like Gecko) Chrome/89.0.4389.82 Safari/537.36",WebKit,Chrome,89.0.4389.82,Windows,10.0
30,1,463.94500002497807,"""",respond,html-keyboard-response,168,313454,0.0-4.0-0.0-1.41,cats,dogs,dogs,CDA15,"<img src=""img/7S_10C_yellow6.jpg"" style=""width:500px;""></img>",83,test,1,42,0,img/7S_10C_yellow6.jpg,0,2,cats,cats,true,false,"""","2021-03-16 18:10:08",96.8.130.106,"Mozilla/5.0 (Windows NT 10.0; Win64; x64) AppleWebKit/537.36 (KHTML, like Gecko) Chrome/89.0.4389.82 Safari/537.36",WebKit,Chrome,89.0.4389.82,Windows,10.0
30,1,null,"""","""",html-keyboard-response,169,314964,0.0-4.0-0.0-4.41-0.41,cats,dogs,dogs,CDA15,"
      <div style=""position: absolute; top: 2vh; left: 2vw;"">
        <img src=""img/yellow_circle.jpeg"" style=""width:100px;""></img>
        <p>S = cats</p>
      </div>
      <div style=""position: absolute; top: 2vh; right: 2vw;"">
        <img src=""img/yellow_square.jpeg"" style=""width:100px;""></img>
        <p>L = dogs</p>
      </div>",null,test,1,"""","""","""","""","""","""","""","""","""","""","2021-03-16 18:10:08",96.8.130.106,"Mozilla/5.0 (Windows NT 10.0; Win64; x64) AppleWebKit/537.36 (KHTML, like Gecko) Chrome/89.0.4389.82 Safari/537.36",WebKit,Chrome,89.0.4389.82,Windows,10.0
30,1,null,"""","""",html-keyboard-response,170,315479,0.0-4.0-0.0-0.42,cats,dogs,dogs,CDA15,"<p class=""fixation"">+</p>",null,test,1,"""","""","""","""","""","""","""","""","""","""","2021-03-16 18:10:08",96.8.130.106,"Mozilla/5.0 (Windows NT 10.0; Win64; x64) AppleWebKit/537.36 (KHTML, like Gecko) Chrome/89.0.4389.82 Safari/537.36",WebKit,Chrome,89.0.4389.82,Windows,10.0
30,1,513.0750000244007,"""",respond,html-keyboard-response,171,315993,0.0-4.0-0.0-1.42,cats,dogs,dogs,CDA15,"<img src=""img/7C_10S_yellow6.jpg"" style=""width:500px;""></img>",76,test,1,43,0,img/7C_10S_yellow6.jpg,0,2,dogs,dogs,true,false,"""","2021-03-16 18:10:08",96.8.130.106,"Mozilla/5.0 (Windows NT 10.0; Win64; x64) AppleWebKit/537.36 (KHTML, like Gecko) Chrome/89.0.4389.82 Safari/537.36",WebKit,Chrome,89.0.4389.82,Windows,10.0
30,1,null,"""","""",html-keyboard-response,172,317499,0.0-4.0-0.0-4.42-0.42,cats,dogs,dogs,CDA15,"
      <div style=""position: absolute; top: 2vh; left: 2vw;"">
        <img src=""img/yellow_circle.jpeg"" style=""width:100px;""></img>
        <p>S = cats</p>
      </div>
      <div style=""position: absolute; top: 2vh; right: 2vw;"">
        <img src=""img/yellow_square.jpeg"" style=""width:100px;""></img>
        <p>L = dogs</p>
      </div>",null,test,1,"""","""","""","""","""","""","""","""","""","""","2021-03-16 18:10:08",96.8.130.106,"Mozilla/5.0 (Windows NT 10.0; Win64; x64) AppleWebKit/537.36 (KHTML, like Gecko) Chrome/89.0.4389.82 Safari/537.36",WebKit,Chrome,89.0.4389.82,Windows,10.0
30,1,null,"""","""",html-keyboard-response,173,318019,0.0-4.0-0.0-0.43,cats,dogs,dogs,CDA15,"<p class=""fixation"">+</p>",null,test,1,"""","""","""","""","""","""","""","""","""","""","2021-03-16 18:10:08",96.8.130.106,"Mozilla/5.0 (Windows NT 10.0; Win64; x64) AppleWebKit/537.36 (KHTML, like Gecko) Chrome/89.0.4389.82 Safari/537.36",WebKit,Chrome,89.0.4389.82,Windows,10.0
30,1,397.179999970831,"""",respond,html-keyboard-response,174,318423,0.0-4.0-0.0-1.43,cats,dogs,dogs,CDA15,"<img src=""img/7C_10S_yellow3.jpg"" style=""width:500px;""></img>",76,test,1,44,1,img/7C_10S_yellow3.jpg,0,1,dogs,dogs,true,true,"""","2021-03-16 18:10:08",96.8.130.106,"Mozilla/5.0 (Windows NT 10.0; Win64; x64) AppleWebKit/537.36 (KHTML, like Gecko) Chrome/89.0.4389.82 Safari/537.36",WebKit,Chrome,89.0.4389.82,Windows,10.0
30,1,null,"""",reward-feedback,audio-keyboard-response,175,319926,0.0-4.0-0.0-3.43-0.43,cats,dogs,dogs,CDA15,mp3/reward-coin-drop.mp3,null,test,1,"""","""","""","""","""","""","""","""","""","""","2021-03-16 18:10:08",96.8.130.106,"Mozilla/5.0 (Windows NT 10.0; Win64; x64) AppleWebKit/537.36 (KHTML, like Gecko) Chrome/89.0.4389.82 Safari/537.36",WebKit,Chrome,89.0.4389.82,Windows,10.0
30,1,null,"""","""",html-keyboard-response,176,320429,0.0-4.0-0.0-0.44,cats,dogs,dogs,CDA15,"<p class=""fixation"">+</p>",null,test,1,"""","""","""","""","""","""","""","""","""","""","2021-03-16 18:10:08",96.8.130.106,"Mozilla/5.0 (Windows NT 10.0; Win64; x64) AppleWebKit/537.36 (KHTML, like Gecko) Chrome/89.0.4389.82 Safari/537.36",WebKit,Chrome,89.0.4389.82,Windows,10.0
30,1,507.61999998940155,"""",respond,html-keyboard-response,177,320938,0.0-4.0-0.0-1.44,cats,dogs,dogs,CDA15,"<img src=""img/7C_10S_yellow5.jpg"" style=""width:500px;""></img>",83,test,1,45,1,img/7C_10S_yellow5.jpg,0,1,dogs,cats,false,false,"""","2021-03-16 18:10:08",96.8.130.106,"Mozilla/5.0 (Windows NT 10.0; Win64; x64) AppleWebKit/537.36 (KHTML, like Gecko) Chrome/89.0.4389.82 Safari/537.36",WebKit,Chrome,89.0.4389.82,Windows,10.0
30,1,null,"""","""",html-keyboard-response,178,322458,0.0-4.0-0.0-4.44-0.44,cats,dogs,dogs,CDA15,"
      <div style=""position: absolute; top: 2vh; left: 2vw;"">
        <img src=""img/yellow_circle.jpeg"" style=""width:100px;""></img>
        <p>S = cats</p>
      </div>
      <div style=""position: absolute; top: 2vh; right: 2vw;"">
        <img src=""img/yellow_square.jpeg"" style=""width:100px;""></img>
        <p>L = dogs</p>
      </div>",null,test,1,"""","""","""","""","""","""","""","""","""","""","2021-03-16 18:10:08",96.8.130.106,"Mozilla/5.0 (Windows NT 10.0; Win64; x64) AppleWebKit/537.36 (KHTML, like Gecko) Chrome/89.0.4389.82 Safari/537.36",WebKit,Chrome,89.0.4389.82,Windows,10.0
30,1,null,"""","""",html-keyboard-response,179,322969,0.0-4.0-0.0-0.45,cats,dogs,dogs,CDA15,"<p class=""fixation"">+</p>",null,test,1,"""","""","""","""","""","""","""","""","""","""","2021-03-16 18:10:08",96.8.130.106,"Mozilla/5.0 (Windows NT 10.0; Win64; x64) AppleWebKit/537.36 (KHTML, like Gecko) Chrome/89.0.4389.82 Safari/537.36",WebKit,Chrome,89.0.4389.82,Windows,10.0
30,1,233.66500000702217,"""",respond,html-keyboard-response,180,323347,0.0-4.0-0.0-1.45,cats,dogs,dogs,CDA15,"<img src=""img/7S_10C_yellow10.jpg"" style=""width:500px;""></img>",83,test,1,46,0,img/7S_10C_yellow10.jpg,0,2,cats,cats,true,false,"""","2021-03-16 18:10:08",96.8.130.106,"Mozilla/5.0 (Windows NT 10.0; Win64; x64) AppleWebKit/537.36 (KHTML, like Gecko) Chrome/89.0.4389.82 Safari/537.36",WebKit,Chrome,89.0.4389.82,Windows,10.0
30,1,null,"""","""",html-keyboard-response,181,324849,0.0-4.0-0.0-4.45-0.45,cats,dogs,dogs,CDA15,"
      <div style=""position: absolute; top: 2vh; left: 2vw;"">
        <img src=""img/yellow_circle.jpeg"" style=""width:100px;""></img>
        <p>S = cats</p>
      </div>
      <div style=""position: absolute; top: 2vh; right: 2vw;"">
        <img src=""img/yellow_square.jpeg"" style=""width:100px;""></img>
        <p>L = dogs</p>
      </div>",null,test,1,"""","""","""","""","""","""","""","""","""","""","2021-03-16 18:10:08",96.8.130.106,"Mozilla/5.0 (Windows NT 10.0; Win64; x64) AppleWebKit/537.36 (KHTML, like Gecko) Chrome/89.0.4389.82 Safari/537.36",WebKit,Chrome,89.0.4389.82,Windows,10.0
30,1,null,"""","""",html-keyboard-response,182,325356,0.0-4.0-0.0-0.46,cats,dogs,dogs,CDA15,"<p class=""fixation"">+</p>",null,test,1,"""","""","""","""","""","""","""","""","""","""","2021-03-16 18:10:08",96.8.130.106,"Mozilla/5.0 (Windows NT 10.0; Win64; x64) AppleWebKit/537.36 (KHTML, like Gecko) Chrome/89.0.4389.82 Safari/537.36",WebKit,Chrome,89.0.4389.82,Windows,10.0
30,1,277.6350000058301,"""",respond,html-keyboard-response,183,325746,0.0-4.0-0.0-1.46,cats,dogs,dogs,CDA15,"<img src=""img/7C_10S_yellow3.jpg"" style=""width:500px;""></img>",76,test,1,47,1,img/7C_10S_yellow3.jpg,0,2,dogs,dogs,true,true,"""","2021-03-16 18:10:08",96.8.130.106,"Mozilla/5.0 (Windows NT 10.0; Win64; x64) AppleWebKit/537.36 (KHTML, like Gecko) Chrome/89.0.4389.82 Safari/537.36",WebKit,Chrome,89.0.4389.82,Windows,10.0
30,1,null,"""",reward-feedback,audio-keyboard-response,184,327249,0.0-4.0-0.0-3.46-0.46,cats,dogs,dogs,CDA15,mp3/reward-coin-drop.mp3,null,test,1,"""","""","""","""","""","""","""","""","""","""","2021-03-16 18:10:08",96.8.130.106,"Mozilla/5.0 (Windows NT 10.0; Win64; x64) AppleWebKit/537.36 (KHTML, like Gecko) Chrome/89.0.4389.82 Safari/537.36",WebKit,Chrome,89.0.4389.82,Windows,10.0
30,1,null,"""","""",html-keyboard-response,185,327759,0.0-4.0-0.0-0.47,cats,dogs,dogs,CDA15,"<p class=""fixation"">+</p>",null,test,1,"""","""","""","""","""","""","""","""","""","""","2021-03-16 18:10:08",96.8.130.106,"Mozilla/5.0 (Windows NT 10.0; Win64; x64) AppleWebKit/537.36 (KHTML, like Gecko) Chrome/89.0.4389.82 Safari/537.36",WebKit,Chrome,89.0.4389.82,Windows,10.0
30,1,562.4450000468642,"""",respond,html-keyboard-response,186,328327,0.0-4.0-0.0-1.47,cats,dogs,dogs,CDA15,"<img src=""img/7C_10S_yellow5.jpg"" style=""width:500px;""></img>",76,test,1,48,0,img/7C_10S_yellow5.jpg,0,2,dogs,dogs,true,false,"""","2021-03-16 18:10:08",96.8.130.106,"Mozilla/5.0 (Windows NT 10.0; Win64; x64) AppleWebKit/537.36 (KHTML, like Gecko) Chrome/89.0.4389.82 Safari/537.36",WebKit,Chrome,89.0.4389.82,Windows,10.0
30,1,null,"""","""",html-keyboard-response,187,329842,0.0-4.0-0.0-4.47-0.47,cats,dogs,dogs,CDA15,"
      <div style=""position: absolute; top: 2vh; left: 2vw;"">
        <img src=""img/yellow_circle.jpeg"" style=""width:100px;""></img>
        <p>S = cats</p>
      </div>
      <div style=""position: absolute; top: 2vh; right: 2vw;"">
        <img src=""img/yellow_square.jpeg"" style=""width:100px;""></img>
        <p>L = dogs</p>
      </div>",null,test,1,"""","""","""","""","""","""","""","""","""","""","2021-03-16 18:10:08",96.8.130.106,"Mozilla/5.0 (Windows NT 10.0; Win64; x64) AppleWebKit/537.36 (KHTML, like Gecko) Chrome/89.0.4389.82 Safari/537.36",WebKit,Chrome,89.0.4389.82,Windows,10.0
30,1,null,"""","""",html-keyboard-response,188,330345,0.0-4.0-0.0-0.48,cats,dogs,dogs,CDA15,"<p class=""fixation"">+</p>",null,test,1,"""","""","""","""","""","""","""","""","""","""","2021-03-16 18:10:08",96.8.130.106,"Mozilla/5.0 (Windows NT 10.0; Win64; x64) AppleWebKit/537.36 (KHTML, like Gecko) Chrome/89.0.4389.82 Safari/537.36",WebKit,Chrome,89.0.4389.82,Windows,10.0
30,1,262.34500005375594,"""",respond,html-keyboard-response,189,330729,0.0-4.0-0.0-1.48,cats,dogs,dogs,CDA15,"<img src=""img/7S_10C_yellow9.jpg"" style=""width:500px;""></img>",83,test,1,49,0,img/7S_10C_yellow9.jpg,0,1,cats,cats,true,false,"""","2021-03-16 18:10:08",96.8.130.106,"Mozilla/5.0 (Windows NT 10.0; Win64; x64) AppleWebKit/537.36 (KHTML, like Gecko) Chrome/89.0.4389.82 Safari/537.36",WebKit,Chrome,89.0.4389.82,Windows,10.0
30,1,null,"""","""",html-keyboard-response,190,332249,0.0-4.0-0.0-4.48-0.48,cats,dogs,dogs,CDA15,"
      <div style=""position: absolute; top: 2vh; left: 2vw;"">
        <img src=""img/yellow_circle.jpeg"" style=""width:100px;""></img>
        <p>S = cats</p>
      </div>
      <div style=""position: absolute; top: 2vh; right: 2vw;"">
        <img src=""img/yellow_square.jpeg"" style=""width:100px;""></img>
        <p>L = dogs</p>
      </div>",null,test,1,"""","""","""","""","""","""","""","""","""","""","2021-03-16 18:10:08",96.8.130.106,"Mozilla/5.0 (Windows NT 10.0; Win64; x64) AppleWebKit/537.36 (KHTML, like Gecko) Chrome/89.0.4389.82 Safari/537.36",WebKit,Chrome,89.0.4389.82,Windows,10.0
30,1,null,"""","""",html-keyboard-response,191,332769,0.0-4.0-0.0-0.49,cats,dogs,dogs,CDA15,"<p class=""fixation"">+</p>",null,test,1,"""","""","""","""","""","""","""","""","""","""","2021-03-16 18:10:08",96.8.130.106,"Mozilla/5.0 (Windows NT 10.0; Win64; x64) AppleWebKit/537.36 (KHTML, like Gecko) Chrome/89.0.4389.82 Safari/537.36",WebKit,Chrome,89.0.4389.82,Windows,10.0
30,1,333.2050000317395,"""",respond,html-keyboard-response,192,333160,0.0-4.0-0.0-1.49,cats,dogs,dogs,CDA15,"<img src=""img/7C_10S_yellow6.jpg"" style=""width:500px;""></img>",76,test,1,50,1,img/7C_10S_yellow6.jpg,0,1,dogs,dogs,true,true,"""","2021-03-16 18:10:08",96.8.130.106,"Mozilla/5.0 (Windows NT 10.0; Win64; x64) AppleWebKit/537.36 (KHTML, like Gecko) Chrome/89.0.4389.82 Safari/537.36",WebKit,Chrome,89.0.4389.82,Windows,10.0
30,1,null,"""",reward-feedback,audio-keyboard-response,193,334669,0.0-4.0-0.0-3.49-0.49,cats,dogs,dogs,CDA15,mp3/reward-coin-drop.mp3,null,test,1,"""","""","""","""","""","""","""","""","""","""","2021-03-16 18:10:08",96.8.130.106,"Mozilla/5.0 (Windows NT 10.0; Win64; x64) AppleWebKit/537.36 (KHTML, like Gecko) Chrome/89.0.4389.82 Safari/537.36",WebKit,Chrome,89.0.4389.82,Windows,10.0
30,1,null,"""","""",html-keyboard-response,194,335182,0.0-4.0-0.0-0.50,cats,dogs,dogs,CDA15,"<p class=""fixation"">+</p>",null,test,1,"""","""","""","""","""","""","""","""","""","""","2021-03-16 18:10:08",96.8.130.106,"Mozilla/5.0 (Windows NT 10.0; Win64; x64) AppleWebKit/537.36 (KHTML, like Gecko) Chrome/89.0.4389.82 Safari/537.36",WebKit,Chrome,89.0.4389.82,Windows,10.0
30,1,476.08500003116205,"""",respond,html-keyboard-response,195,335660,0.0-4.0-0.0-1.50,cats,dogs,dogs,CDA15,"<img src=""img/7C_10S_yellow4.jpg"" style=""width:500px;""></img>",76,test,1,51,0,img/7C_10S_yellow4.jpg,0,1,dogs,dogs,true,false,"""","2021-03-16 18:10:08",96.8.130.106,"Mozilla/5.0 (Windows NT 10.0; Win64; x64) AppleWebKit/537.36 (KHTML, like Gecko) Chrome/89.0.4389.82 Safari/537.36",WebKit,Chrome,89.0.4389.82,Windows,10.0
30,1,null,"""","""",html-keyboard-response,196,337163,0.0-4.0-0.0-4.50-0.50,cats,dogs,dogs,CDA15,"
      <div style=""position: absolute; top: 2vh; left: 2vw;"">
        <img src=""img/yellow_circle.jpeg"" style=""width:100px;""></img>
        <p>S = cats</p>
      </div>
      <div style=""position: absolute; top: 2vh; right: 2vw;"">
        <img src=""img/yellow_square.jpeg"" style=""width:100px;""></img>
        <p>L = dogs</p>
      </div>",null,test,1,"""","""","""","""","""","""","""","""","""","""","2021-03-16 18:10:08",96.8.130.106,"Mozilla/5.0 (Windows NT 10.0; Win64; x64) AppleWebKit/537.36 (KHTML, like Gecko) Chrome/89.0.4389.82 Safari/537.36",WebKit,Chrome,89.0.4389.82,Windows,10.0
30,1,null,"""","""",html-keyboard-response,197,337679,0.0-4.0-0.0-0.51,cats,dogs,dogs,CDA15,"<p class=""fixation"">+</p>",null,test,1,"""","""","""","""","""","""","""","""","""","""","2021-03-16 18:10:08",96.8.130.106,"Mozilla/5.0 (Windows NT 10.0; Win64; x64) AppleWebKit/537.36 (KHTML, like Gecko) Chrome/89.0.4389.82 Safari/537.36",WebKit,Chrome,89.0.4389.82,Windows,10.0
30,1,222.26499998942018,"""",respond,html-keyboard-response,198,338069,0.0-4.0-0.0-1.51,cats,dogs,dogs,CDA15,"<img src=""img/7S_10C_yellow10.jpg"" style=""width:500px;""></img>",83,test,1,52,0,img/7S_10C_yellow10.jpg,0,0,cats,cats,true,false,"""","2021-03-16 18:10:08",96.8.130.106,"Mozilla/5.0 (Windows NT 10.0; Win64; x64) AppleWebKit/537.36 (KHTML, like Gecko) Chrome/89.0.4389.82 Safari/537.36",WebKit,Chrome,89.0.4389.82,Windows,10.0
30,1,null,"""","""",html-keyboard-response,199,339571,0.0-4.0-0.0-4.51-0.51,cats,dogs,dogs,CDA15,"
      <div style=""position: absolute; top: 2vh; left: 2vw;"">
        <img src=""img/yellow_circle.jpeg"" style=""width:100px;""></img>
        <p>S = cats</p>
      </div>
      <div style=""position: absolute; top: 2vh; right: 2vw;"">
        <img src=""img/yellow_square.jpeg"" style=""width:100px;""></img>
        <p>L = dogs</p>
      </div>",null,test,1,"""","""","""","""","""","""","""","""","""","""","2021-03-16 18:10:08",96.8.130.106,"Mozilla/5.0 (Windows NT 10.0; Win64; x64) AppleWebKit/537.36 (KHTML, like Gecko) Chrome/89.0.4389.82 Safari/537.36",WebKit,Chrome,89.0.4389.82,Windows,10.0
30,1,null,"""","""",html-keyboard-response,200,340081,0.0-4.0-0.0-0.52,cats,dogs,dogs,CDA15,"<p class=""fixation"">+</p>",null,test,1,"""","""","""","""","""","""","""","""","""","""","2021-03-16 18:10:08",96.8.130.106,"Mozilla/5.0 (Windows NT 10.0; Win64; x64) AppleWebKit/537.36 (KHTML, like Gecko) Chrome/89.0.4389.82 Safari/537.36",WebKit,Chrome,89.0.4389.82,Windows,10.0
30,1,352.4599999655038,"""",respond,html-keyboard-response,201,340457,0.0-4.0-0.0-1.52,cats,dogs,dogs,CDA15,"<img src=""img/7C_10S_yellow5.jpg"" style=""width:500px;""></img>",83,test,1,53,1,img/7C_10S_yellow5.jpg,0,0,dogs,cats,false,false,"""","2021-03-16 18:10:08",96.8.130.106,"Mozilla/5.0 (Windows NT 10.0; Win64; x64) AppleWebKit/537.36 (KHTML, like Gecko) Chrome/89.0.4389.82 Safari/537.36",WebKit,Chrome,89.0.4389.82,Windows,10.0
30,1,null,"""","""",html-keyboard-response,202,341964,0.0-4.0-0.0-4.52-0.52,cats,dogs,dogs,CDA15,"
      <div style=""position: absolute; top: 2vh; left: 2vw;"">
        <img src=""img/yellow_circle.jpeg"" style=""width:100px;""></img>
        <p>S = cats</p>
      </div>
      <div style=""position: absolute; top: 2vh; right: 2vw;"">
        <img src=""img/yellow_square.jpeg"" style=""width:100px;""></img>
        <p>L = dogs</p>
      </div>",null,test,1,"""","""","""","""","""","""","""","""","""","""","2021-03-16 18:10:08",96.8.130.106,"Mozilla/5.0 (Windows NT 10.0; Win64; x64) AppleWebKit/537.36 (KHTML, like Gecko) Chrome/89.0.4389.82 Safari/537.36",WebKit,Chrome,89.0.4389.82,Windows,10.0
