run_id,condition,rt,responses,task,trial_type,trial_index,time_elapsed,internal_node_id,left_shape,right_shape,bias_shape,subject_id,stimulus,key_press,phase,block,trial,rewarded,image,unrewarded_left_trials,unrewarded_right_trials,correct_shape,response,correct,did_reward,value,recorded_at,ip,user_agent,device,browser,browser_version,platform,platform_version
35,1,3464.429999999993,"{""Q0"":""CDA21""}",id,survey-text,0,3500,0.0-0.0,cats,dogs,dogs,CDA21,"""","""","""","""","""","""","""","""","""","""","""","""","""","""","2021-03-16 19:09:39",68.104.142.91,"Mozilla/5.0 (Windows NT 10.0; Win64; x64) AppleWebKit/537.36 (KHTML, like Gecko) Chrome/84.0.4147.105 Safari/537.36 Edg/84.0.522.52",WebKit,Edge,84.0.522.52,Windows,10.0
35,1,29715.25499999916,"""","""",html-keyboard-response,1,33221,0.0-1.0-0.0,cats,dogs,dogs,CDA21,"<p>Before you begin, please do the following: </p> <ol style=""text-align: left;""> <li> Place your computer on a flat surface. </li> 
	  <li> Seat yourself so that your face is approximately 1.5 feet (50 cm) from the screen.  </li>
	  <li>Ensure that your computer sound is switched on. </li> </ol>
	  <p>Press the spacebar to continue.</p>",32,"""","""","""","""","""","""","""","""","""","""","""","""","2021-03-16 19:09:39",68.104.142.91,"Mozilla/5.0 (Windows NT 10.0; Win64; x64) AppleWebKit/537.36 (KHTML, like Gecko) Chrome/84.0.4147.105 Safari/537.36 Edg/84.0.522.52",WebKit,Edge,84.0.522.52,Windows,10.0
35,1,20169.794999999795,"""","""",html-keyboard-response,2,53393,0.0-1.0-1.0,cats,dogs,dogs,CDA21,"<p>Please position your index fingers on the ""S"" and ""L"" keys for this experiment.
        The game will last approximately 10 minutes and is composed of 3 blocks 
        separated by a break.</p><p>Press the spacebar to continue.</p>",32,"""","""","""","""","""","""","""","""","""","""","""","""","2021-03-16 19:09:39",68.104.142.91,"Mozilla/5.0 (Windows NT 10.0; Win64; x64) AppleWebKit/537.36 (KHTML, like Gecko) Chrome/84.0.4147.105 Safari/537.36 Edg/84.0.522.52",WebKit,Edge,84.0.522.52,Windows,10.0
35,1,15240.085000001272,"""","""",html-keyboard-response,3,68635,0.0-1.0-2.0,cats,dogs,dogs,CDA21,"<p>You will be presented with either an image with more dogs than cats, or an image with 
        more cats than dogs. You will see them one at a time.</p>
        <p>Your task will be to decide whether more dogs or more cats were presented by pushing the correct button as quickly
        and accurately as possible.</p>
        <p>The ""S"" key will be used to identify more cats and the ""L"" key will be used 
        to identify more dogs. Examples of what the images look like are below:</p>
        <p style=""height: 300px;"">
        <img style=""width:250px; float: left;"" src=""img/7S_10C_yellow3.jpg""></img>
        <img style=""width:250px; float: right;"" src=""img/7C_10S_yellow3.jpg""></img>
        <span style=""text-align:center; width:250px; clear:both; float: left;"">More cats = S</span>
        <span style=""text-align:center; width:250px; float: right;"">More dogs = L</span>
        </p>
        <p>Press the spacebar to continue.</p>",32,"""","""","""","""","""","""","""","""","""","""","""","""","2021-03-16 19:09:39",68.104.142.91,"Mozilla/5.0 (Windows NT 10.0; Win64; x64) AppleWebKit/537.36 (KHTML, like Gecko) Chrome/84.0.4147.105 Safari/537.36 Edg/84.0.522.52",WebKit,Edge,84.0.522.52,Windows,10.0
35,1,1772.8550000010728,"""","""",html-keyboard-response,4,70410,0.0-1.0-3.0,cats,dogs,dogs,CDA21,"<p style=""font-size: 18px;"">More cats</p>
        <img src=""img/yellow_circle.jpeg"" style=""width:100px;""></img>
        <p>The [S] key will be used to identify pictures with <span style=""text-decoration: underline;"">more cats.</span></p>
        <img style=""width:250px;"" src=""img/7S_10C_yellow3.jpg""></img>
        <p>Press the [S] key to continue.</p>",83,"""","""","""","""","""","""","""","""","""","""","""","""","2021-03-16 19:09:39",68.104.142.91,"Mozilla/5.0 (Windows NT 10.0; Win64; x64) AppleWebKit/537.36 (KHTML, like Gecko) Chrome/84.0.4147.105 Safari/537.36 Edg/84.0.522.52",WebKit,Edge,84.0.522.52,Windows,10.0
35,1,692.9149999996298,"""","""",html-keyboard-response,5,71105,0.0-1.0-4.0,cats,dogs,dogs,CDA21,"<p style=""font-size: 18px;"">More dogs</p>
        <img src=""img/yellow_square.jpeg"" style=""width:100px;""></img>
        <p>The [L] key will be used to identify pictures with <span style=""text-decoration: underline;"">more dogs.</span></p>
        <img style=""width:250px;"" src=""img/7C_10S_yellow3.jpg""></img>
        <p>Press the [L] key to continue.</p>",76,"""","""","""","""","""","""","""","""","""","""","""","""","2021-03-16 19:09:39",68.104.142.91,"Mozilla/5.0 (Windows NT 10.0; Win64; x64) AppleWebKit/537.36 (KHTML, like Gecko) Chrome/84.0.4147.105 Safari/537.36 Edg/84.0.522.52",WebKit,Edge,84.0.522.52,Windows,10.0
35,1,5988.784999999552,"""","""",html-keyboard-response,6,77094,0.0-1.0-5.0,cats,dogs,dogs,CDA21,"<p>Now, let's take a practice run. You will see a fixation cross, '+', on the screen. You should always focus your
        attention on the fixation cross as this will help you identify the image as quickly and accurately as possible. The fixation
        cross will be followed by an image with more dogs or more cats. Remember, if you think there are more cats
        press the ""S"" key. If you think there are more dogs press the ""L"" key.</p>
        <p>If you understand these directions and are ready to proceed to the practice round, please press the spacebar.</p>",32,"""","""","""","""","""","""","""","""","""","""","""","""","2021-03-16 19:09:39",68.104.142.91,"Mozilla/5.0 (Windows NT 10.0; Win64; x64) AppleWebKit/537.36 (KHTML, like Gecko) Chrome/84.0.4147.105 Safari/537.36 Edg/84.0.522.52",WebKit,Edge,84.0.522.52,Windows,10.0
35,1,null,"""","""",html-keyboard-response,7,77603,0.0-2.0-0.0-0.0,cats,dogs,dogs,CDA21,"<p class=""fixation"">+</p>",null,practice,"""","""","""","""","""","""","""","""","""","""","""","2021-03-16 19:09:39",68.104.142.91,"Mozilla/5.0 (Windows NT 10.0; Win64; x64) AppleWebKit/537.36 (KHTML, like Gecko) Chrome/84.0.4147.105 Safari/537.36 Edg/84.0.522.52",WebKit,Edge,84.0.522.52,Windows,10.0
35,1,1176.4400000010937,"""",respond,html-keyboard-response,8,78782,0.0-2.0-0.0-1.0,cats,dogs,dogs,CDA21,"<img src=""img/7C_10S_yellow6.jpg"" style=""width:500px;""></img>",76,practice,null,null,null,img/7C_10S_yellow6.jpg,0,0,dogs,dogs,true,false,"""","2021-03-16 19:09:39",68.104.142.91,"Mozilla/5.0 (Windows NT 10.0; Win64; x64) AppleWebKit/537.36 (KHTML, like Gecko) Chrome/84.0.4147.105 Safari/537.36 Edg/84.0.522.52",WebKit,Edge,84.0.522.52,Windows,10.0
35,1,null,"""",accuracy-feedback,audio-keyboard-response,9,80286,0.0-2.0-0.0-2.0,cats,dogs,dogs,CDA21,mp3/reward-coin-drop.mp3,null,practice,"""","""","""","""","""","""","""","""","""","""","""","2021-03-16 19:09:39",68.104.142.91,"Mozilla/5.0 (Windows NT 10.0; Win64; x64) AppleWebKit/537.36 (KHTML, like Gecko) Chrome/84.0.4147.105 Safari/537.36 Edg/84.0.522.52",WebKit,Edge,84.0.522.52,Windows,10.0
35,1,null,"""","""",html-keyboard-response,10,81789,0.0-2.0-0.0-3.0-0.0,cats,dogs,dogs,CDA21,"
      <div style=""position: absolute; top: 2vh; left: 2vw;"">
        <img src=""img/yellow_circle.jpeg"" style=""width:100px;""></img>
        <p>S = cats</p>
      </div>
      <div style=""position: absolute; top: 2vh; right: 2vw;"">
        <img src=""img/yellow_square.jpeg"" style=""width:100px;""></img>
        <p>L = dogs</p>
      </div>",null,practice,"""","""","""","""","""","""","""","""","""","""","""","2021-03-16 19:09:39",68.104.142.91,"Mozilla/5.0 (Windows NT 10.0; Win64; x64) AppleWebKit/537.36 (KHTML, like Gecko) Chrome/84.0.4147.105 Safari/537.36 Edg/84.0.522.52",WebKit,Edge,84.0.522.52,Windows,10.0
35,1,null,"""","""",html-keyboard-response,11,82291,0.0-2.0-0.0-0.1,cats,dogs,dogs,CDA21,"<p class=""fixation"">+</p>",null,practice,"""","""","""","""","""","""","""","""","""","""","""","2021-03-16 19:09:39",68.104.142.91,"Mozilla/5.0 (Windows NT 10.0; Win64; x64) AppleWebKit/537.36 (KHTML, like Gecko) Chrome/84.0.4147.105 Safari/537.36 Edg/84.0.522.52",WebKit,Edge,84.0.522.52,Windows,10.0
35,1,1042.844999999943,"""",respond,html-keyboard-response,12,83335,0.0-2.0-0.0-1.1,cats,dogs,dogs,CDA21,"<img src=""img/7S_10C_yellow3.jpg"" style=""width:500px;""></img>",83,practice,null,null,null,img/7S_10C_yellow3.jpg,0,0,cats,cats,true,false,"""","2021-03-16 19:09:39",68.104.142.91,"Mozilla/5.0 (Windows NT 10.0; Win64; x64) AppleWebKit/537.36 (KHTML, like Gecko) Chrome/84.0.4147.105 Safari/537.36 Edg/84.0.522.52",WebKit,Edge,84.0.522.52,Windows,10.0
35,1,null,"""",accuracy-feedback,audio-keyboard-response,13,84844,0.0-2.0-0.0-2.1,cats,dogs,dogs,CDA21,mp3/reward-coin-drop.mp3,null,practice,"""","""","""","""","""","""","""","""","""","""","""","2021-03-16 19:09:39",68.104.142.91,"Mozilla/5.0 (Windows NT 10.0; Win64; x64) AppleWebKit/537.36 (KHTML, like Gecko) Chrome/84.0.4147.105 Safari/537.36 Edg/84.0.522.52",WebKit,Edge,84.0.522.52,Windows,10.0
35,1,null,"""","""",html-keyboard-response,14,86346,0.0-2.0-0.0-3.1-0.1,cats,dogs,dogs,CDA21,"
      <div style=""position: absolute; top: 2vh; left: 2vw;"">
        <img src=""img/yellow_circle.jpeg"" style=""width:100px;""></img>
        <p>S = cats</p>
      </div>
      <div style=""position: absolute; top: 2vh; right: 2vw;"">
        <img src=""img/yellow_square.jpeg"" style=""width:100px;""></img>
        <p>L = dogs</p>
      </div>",null,practice,"""","""","""","""","""","""","""","""","""","""","""","2021-03-16 19:09:39",68.104.142.91,"Mozilla/5.0 (Windows NT 10.0; Win64; x64) AppleWebKit/537.36 (KHTML, like Gecko) Chrome/84.0.4147.105 Safari/537.36 Edg/84.0.522.52",WebKit,Edge,84.0.522.52,Windows,10.0
35,1,null,"""","""",html-keyboard-response,15,86850,0.0-2.0-0.0-0.2,cats,dogs,dogs,CDA21,"<p class=""fixation"">+</p>",null,practice,"""","""","""","""","""","""","""","""","""","""","""","2021-03-16 19:09:39",68.104.142.91,"Mozilla/5.0 (Windows NT 10.0; Win64; x64) AppleWebKit/537.36 (KHTML, like Gecko) Chrome/84.0.4147.105 Safari/537.36 Edg/84.0.522.52",WebKit,Edge,84.0.522.52,Windows,10.0
35,1,717.689999999493,"""",respond,html-keyboard-response,16,87569,0.0-2.0-0.0-1.2,cats,dogs,dogs,CDA21,"<img src=""img/7C_10S_yellow4.jpg"" style=""width:500px;""></img>",76,practice,null,null,null,img/7C_10S_yellow4.jpg,0,0,dogs,dogs,true,false,"""","2021-03-16 19:09:39",68.104.142.91,"Mozilla/5.0 (Windows NT 10.0; Win64; x64) AppleWebKit/537.36 (KHTML, like Gecko) Chrome/84.0.4147.105 Safari/537.36 Edg/84.0.522.52",WebKit,Edge,84.0.522.52,Windows,10.0
35,1,null,"""",accuracy-feedback,audio-keyboard-response,17,89072,0.0-2.0-0.0-2.2,cats,dogs,dogs,CDA21,mp3/reward-coin-drop.mp3,null,practice,"""","""","""","""","""","""","""","""","""","""","""","2021-03-16 19:09:39",68.104.142.91,"Mozilla/5.0 (Windows NT 10.0; Win64; x64) AppleWebKit/537.36 (KHTML, like Gecko) Chrome/84.0.4147.105 Safari/537.36 Edg/84.0.522.52",WebKit,Edge,84.0.522.52,Windows,10.0
35,1,null,"""","""",html-keyboard-response,18,90575,0.0-2.0-0.0-3.2-0.2,cats,dogs,dogs,CDA21,"
      <div style=""position: absolute; top: 2vh; left: 2vw;"">
        <img src=""img/yellow_circle.jpeg"" style=""width:100px;""></img>
        <p>S = cats</p>
      </div>
      <div style=""position: absolute; top: 2vh; right: 2vw;"">
        <img src=""img/yellow_square.jpeg"" style=""width:100px;""></img>
        <p>L = dogs</p>
      </div>",null,practice,"""","""","""","""","""","""","""","""","""","""","""","2021-03-16 19:09:39",68.104.142.91,"Mozilla/5.0 (Windows NT 10.0; Win64; x64) AppleWebKit/537.36 (KHTML, like Gecko) Chrome/84.0.4147.105 Safari/537.36 Edg/84.0.522.52",WebKit,Edge,84.0.522.52,Windows,10.0
35,1,null,"""","""",html-keyboard-response,19,91078,0.0-2.0-0.0-0.3,cats,dogs,dogs,CDA21,"<p class=""fixation"">+</p>",null,practice,"""","""","""","""","""","""","""","""","""","""","""","2021-03-16 19:09:39",68.104.142.91,"Mozilla/5.0 (Windows NT 10.0; Win64; x64) AppleWebKit/537.36 (KHTML, like Gecko) Chrome/84.0.4147.105 Safari/537.36 Edg/84.0.522.52",WebKit,Edge,84.0.522.52,Windows,10.0
35,1,2235.1400000006834,"""",respond,html-keyboard-response,20,93315,0.0-2.0-0.0-1.3,cats,dogs,dogs,CDA21,"<img src=""img/7S_10C_yellow6.jpg"" style=""width:500px;""></img>",83,practice,null,null,null,img/7S_10C_yellow6.jpg,0,0,cats,cats,true,false,"""","2021-03-16 19:09:39",68.104.142.91,"Mozilla/5.0 (Windows NT 10.0; Win64; x64) AppleWebKit/537.36 (KHTML, like Gecko) Chrome/84.0.4147.105 Safari/537.36 Edg/84.0.522.52",WebKit,Edge,84.0.522.52,Windows,10.0
35,1,null,"""",accuracy-feedback,audio-keyboard-response,21,94819,0.0-2.0-0.0-2.3,cats,dogs,dogs,CDA21,mp3/reward-coin-drop.mp3,null,practice,"""","""","""","""","""","""","""","""","""","""","""","2021-03-16 19:09:39",68.104.142.91,"Mozilla/5.0 (Windows NT 10.0; Win64; x64) AppleWebKit/537.36 (KHTML, like Gecko) Chrome/84.0.4147.105 Safari/537.36 Edg/84.0.522.52",WebKit,Edge,84.0.522.52,Windows,10.0
35,1,null,"""","""",html-keyboard-response,22,96321,0.0-2.0-0.0-3.3-0.3,cats,dogs,dogs,CDA21,"
      <div style=""position: absolute; top: 2vh; left: 2vw;"">
        <img src=""img/yellow_circle.jpeg"" style=""width:100px;""></img>
        <p>S = cats</p>
      </div>
      <div style=""position: absolute; top: 2vh; right: 2vw;"">
        <img src=""img/yellow_square.jpeg"" style=""width:100px;""></img>
        <p>L = dogs</p>
      </div>",null,practice,"""","""","""","""","""","""","""","""","""","""","""","2021-03-16 19:09:39",68.104.142.91,"Mozilla/5.0 (Windows NT 10.0; Win64; x64) AppleWebKit/537.36 (KHTML, like Gecko) Chrome/84.0.4147.105 Safari/537.36 Edg/84.0.522.52",WebKit,Edge,84.0.522.52,Windows,10.0
35,1,null,"""","""",html-keyboard-response,23,96824,0.0-2.0-0.0-0.4,cats,dogs,dogs,CDA21,"<p class=""fixation"">+</p>",null,practice,"""","""","""","""","""","""","""","""","""","""","""","2021-03-16 19:09:39",68.104.142.91,"Mozilla/5.0 (Windows NT 10.0; Win64; x64) AppleWebKit/537.36 (KHTML, like Gecko) Chrome/84.0.4147.105 Safari/537.36 Edg/84.0.522.52",WebKit,Edge,84.0.522.52,Windows,10.0
35,1,1147.240000000238,"""",respond,html-keyboard-response,24,97973,0.0-2.0-0.0-1.4,cats,dogs,dogs,CDA21,"<img src=""img/7S_10C_yellow4.jpg"" style=""width:500px;""></img>",83,practice,null,null,null,img/7S_10C_yellow4.jpg,0,0,cats,cats,true,false,"""","2021-03-16 19:09:39",68.104.142.91,"Mozilla/5.0 (Windows NT 10.0; Win64; x64) AppleWebKit/537.36 (KHTML, like Gecko) Chrome/84.0.4147.105 Safari/537.36 Edg/84.0.522.52",WebKit,Edge,84.0.522.52,Windows,10.0
35,1,null,"""",accuracy-feedback,audio-keyboard-response,25,99477,0.0-2.0-0.0-2.4,cats,dogs,dogs,CDA21,mp3/reward-coin-drop.mp3,null,practice,"""","""","""","""","""","""","""","""","""","""","""","2021-03-16 19:09:39",68.104.142.91,"Mozilla/5.0 (Windows NT 10.0; Win64; x64) AppleWebKit/537.36 (KHTML, like Gecko) Chrome/84.0.4147.105 Safari/537.36 Edg/84.0.522.52",WebKit,Edge,84.0.522.52,Windows,10.0
35,1,null,"""","""",html-keyboard-response,26,100980,0.0-2.0-0.0-3.4-0.4,cats,dogs,dogs,CDA21,"
      <div style=""position: absolute; top: 2vh; left: 2vw;"">
        <img src=""img/yellow_circle.jpeg"" style=""width:100px;""></img>
        <p>S = cats</p>
      </div>
      <div style=""position: absolute; top: 2vh; right: 2vw;"">
        <img src=""img/yellow_square.jpeg"" style=""width:100px;""></img>
        <p>L = dogs</p>
      </div>",null,practice,"""","""","""","""","""","""","""","""","""","""","""","2021-03-16 19:09:39",68.104.142.91,"Mozilla/5.0 (Windows NT 10.0; Win64; x64) AppleWebKit/537.36 (KHTML, like Gecko) Chrome/84.0.4147.105 Safari/537.36 Edg/84.0.522.52",WebKit,Edge,84.0.522.52,Windows,10.0
35,1,null,"""","""",html-keyboard-response,27,101482,0.0-2.0-0.0-0.5,cats,dogs,dogs,CDA21,"<p class=""fixation"">+</p>",null,practice,"""","""","""","""","""","""","""","""","""","""","""","2021-03-16 19:09:39",68.104.142.91,"Mozilla/5.0 (Windows NT 10.0; Win64; x64) AppleWebKit/537.36 (KHTML, like Gecko) Chrome/84.0.4147.105 Safari/537.36 Edg/84.0.522.52",WebKit,Edge,84.0.522.52,Windows,10.0
35,1,1348.2199999998556,"""",respond,html-keyboard-response,28,102832,0.0-2.0-0.0-1.5,cats,dogs,dogs,CDA21,"<img src=""img/7C_10S_yellow3.jpg"" style=""width:500px;""></img>",76,practice,null,null,null,img/7C_10S_yellow3.jpg,0,0,dogs,dogs,true,false,"""","2021-03-16 19:09:39",68.104.142.91,"Mozilla/5.0 (Windows NT 10.0; Win64; x64) AppleWebKit/537.36 (KHTML, like Gecko) Chrome/84.0.4147.105 Safari/537.36 Edg/84.0.522.52",WebKit,Edge,84.0.522.52,Windows,10.0
35,1,null,"""",accuracy-feedback,audio-keyboard-response,29,104338,0.0-2.0-0.0-2.5,cats,dogs,dogs,CDA21,mp3/reward-coin-drop.mp3,null,practice,"""","""","""","""","""","""","""","""","""","""","""","2021-03-16 19:09:39",68.104.142.91,"Mozilla/5.0 (Windows NT 10.0; Win64; x64) AppleWebKit/537.36 (KHTML, like Gecko) Chrome/84.0.4147.105 Safari/537.36 Edg/84.0.522.52",WebKit,Edge,84.0.522.52,Windows,10.0
35,1,null,"""","""",html-keyboard-response,30,105839,0.0-2.0-0.0-3.5-0.5,cats,dogs,dogs,CDA21,"
      <div style=""position: absolute; top: 2vh; left: 2vw;"">
        <img src=""img/yellow_circle.jpeg"" style=""width:100px;""></img>
        <p>S = cats</p>
      </div>
      <div style=""position: absolute; top: 2vh; right: 2vw;"">
        <img src=""img/yellow_square.jpeg"" style=""width:100px;""></img>
        <p>L = dogs</p>
      </div>",null,practice,"""","""","""","""","""","""","""","""","""","""","""","2021-03-16 19:09:39",68.104.142.91,"Mozilla/5.0 (Windows NT 10.0; Win64; x64) AppleWebKit/537.36 (KHTML, like Gecko) Chrome/84.0.4147.105 Safari/537.36 Edg/84.0.522.52",WebKit,Edge,84.0.522.52,Windows,10.0
35,1,null,"""","""",html-keyboard-response,31,106342,0.0-2.0-0.0-0.6,cats,dogs,dogs,CDA21,"<p class=""fixation"">+</p>",null,practice,"""","""","""","""","""","""","""","""","""","""","""","2021-03-16 19:09:39",68.104.142.91,"Mozilla/5.0 (Windows NT 10.0; Win64; x64) AppleWebKit/537.36 (KHTML, like Gecko) Chrome/84.0.4147.105 Safari/537.36 Edg/84.0.522.52",WebKit,Edge,84.0.522.52,Windows,10.0
35,1,1355.9349999995902,"""",respond,html-keyboard-response,32,107701,0.0-2.0-0.0-1.6,cats,dogs,dogs,CDA21,"<img src=""img/7S_10C_yellow5.jpg"" style=""width:500px;""></img>",76,practice,null,null,null,img/7S_10C_yellow5.jpg,0,0,cats,dogs,false,false,"""","2021-03-16 19:09:39",68.104.142.91,"Mozilla/5.0 (Windows NT 10.0; Win64; x64) AppleWebKit/537.36 (KHTML, like Gecko) Chrome/84.0.4147.105 Safari/537.36 Edg/84.0.522.52",WebKit,Edge,84.0.522.52,Windows,10.0
35,1,null,"""",accuracy-feedback,audio-keyboard-response,33,109203,0.0-2.0-0.0-2.6,cats,dogs,dogs,CDA21,null,null,practice,"""","""","""","""","""","""","""","""","""","""","""","2021-03-16 19:09:39",68.104.142.91,"Mozilla/5.0 (Windows NT 10.0; Win64; x64) AppleWebKit/537.36 (KHTML, like Gecko) Chrome/84.0.4147.105 Safari/537.36 Edg/84.0.522.52",WebKit,Edge,84.0.522.52,Windows,10.0
35,1,null,"""","""",html-keyboard-response,34,110706,0.0-2.0-0.0-3.6-0.6,cats,dogs,dogs,CDA21,"
      <div style=""position: absolute; top: 2vh; left: 2vw;"">
        <img src=""img/yellow_circle.jpeg"" style=""width:100px;""></img>
        <p>S = cats</p>
      </div>
      <div style=""position: absolute; top: 2vh; right: 2vw;"">
        <img src=""img/yellow_square.jpeg"" style=""width:100px;""></img>
        <p>L = dogs</p>
      </div>",null,practice,"""","""","""","""","""","""","""","""","""","""","""","2021-03-16 19:09:39",68.104.142.91,"Mozilla/5.0 (Windows NT 10.0; Win64; x64) AppleWebKit/537.36 (KHTML, like Gecko) Chrome/84.0.4147.105 Safari/537.36 Edg/84.0.522.52",WebKit,Edge,84.0.522.52,Windows,10.0
35,1,null,"""","""",html-keyboard-response,35,111208,0.0-2.0-0.0-0.7,cats,dogs,dogs,CDA21,"<p class=""fixation"">+</p>",null,practice,"""","""","""","""","""","""","""","""","""","""","""","2021-03-16 19:09:39",68.104.142.91,"Mozilla/5.0 (Windows NT 10.0; Win64; x64) AppleWebKit/537.36 (KHTML, like Gecko) Chrome/84.0.4147.105 Safari/537.36 Edg/84.0.522.52",WebKit,Edge,84.0.522.52,Windows,10.0
35,1,991.2150000000111,"""",respond,html-keyboard-response,36,112202,0.0-2.0-0.0-1.7,cats,dogs,dogs,CDA21,"<img src=""img/7C_10S_yellow5.jpg"" style=""width:500px;""></img>",76,practice,null,null,null,img/7C_10S_yellow5.jpg,0,0,dogs,dogs,true,false,"""","2021-03-16 19:09:39",68.104.142.91,"Mozilla/5.0 (Windows NT 10.0; Win64; x64) AppleWebKit/537.36 (KHTML, like Gecko) Chrome/84.0.4147.105 Safari/537.36 Edg/84.0.522.52",WebKit,Edge,84.0.522.52,Windows,10.0
35,1,null,"""",accuracy-feedback,audio-keyboard-response,37,113708,0.0-2.0-0.0-2.7,cats,dogs,dogs,CDA21,mp3/reward-coin-drop.mp3,null,practice,"""","""","""","""","""","""","""","""","""","""","""","2021-03-16 19:09:39",68.104.142.91,"Mozilla/5.0 (Windows NT 10.0; Win64; x64) AppleWebKit/537.36 (KHTML, like Gecko) Chrome/84.0.4147.105 Safari/537.36 Edg/84.0.522.52",WebKit,Edge,84.0.522.52,Windows,10.0
35,1,null,"""","""",html-keyboard-response,38,115211,0.0-2.0-0.0-3.7-0.7,cats,dogs,dogs,CDA21,"
      <div style=""position: absolute; top: 2vh; left: 2vw;"">
        <img src=""img/yellow_circle.jpeg"" style=""width:100px;""></img>
        <p>S = cats</p>
      </div>
      <div style=""position: absolute; top: 2vh; right: 2vw;"">
        <img src=""img/yellow_square.jpeg"" style=""width:100px;""></img>
        <p>L = dogs</p>
      </div>",null,practice,"""","""","""","""","""","""","""","""","""","""","""","2021-03-16 19:09:39",68.104.142.91,"Mozilla/5.0 (Windows NT 10.0; Win64; x64) AppleWebKit/537.36 (KHTML, like Gecko) Chrome/84.0.4147.105 Safari/537.36 Edg/84.0.522.52",WebKit,Edge,84.0.522.52,Windows,10.0
35,1,2178.0049999997573,"""","""",html-keyboard-response,39,117392,0.0-2.0-1.0,cats,dogs,dogs,CDA21,"<p>Would you like to practice more? y = yes, n = no</p>",78,"""","""","""","""","""","""","""","""","""","""","""","""","2021-03-16 19:09:39",68.104.142.91,"Mozilla/5.0 (Windows NT 10.0; Win64; x64) AppleWebKit/537.36 (KHTML, like Gecko) Chrome/84.0.4147.105 Safari/537.36 Edg/84.0.522.52",WebKit,Edge,84.0.522.52,Windows,10.0
35,1,2748.439999999391,"""","""",html-keyboard-response,40,120142,0.0-3.0-0.0,cats,dogs,dogs,CDA21,"<p>For some trials, a correct identification will result in a monetary reward of 5 cents.</p>
          <p>Press the spacebar to see what this will look like.</p>",32,"""","""","""","""","""","""","""","""","""","""","""","""","2021-03-16 19:09:39",68.104.142.91,"Mozilla/5.0 (Windows NT 10.0; Win64; x64) AppleWebKit/537.36 (KHTML, like Gecko) Chrome/84.0.4147.105 Safari/537.36 Edg/84.0.522.52",WebKit,Edge,84.0.522.52,Windows,10.0
35,1,null,"""","""",audio-keyboard-response,41,121646,0.0-3.0-1.0,cats,dogs,dogs,CDA21,mp3/reward-coin-drop.mp3,null,"""","""","""","""","""","""","""","""","""","""","""","""","2021-03-16 19:09:39",68.104.142.91,"Mozilla/5.0 (Windows NT 10.0; Win64; x64) AppleWebKit/537.36 (KHTML, like Gecko) Chrome/84.0.4147.105 Safari/537.36 Edg/84.0.522.52",WebKit,Edge,84.0.522.52,Windows,10.0
35,1,3015.4400000010355,"""","""",html-keyboard-response,42,124662,0.0-3.0-2.0,cats,dogs,dogs,CDA21,"<p><span style=""color:red; font-weight:bold;"">Not all</span> correct responses will receive a reward.</p><p>At the end of the experiment you will be given the amount of money you have accumulated. The more correct identifications
          you make, the more money you will take home.</p><p>Press the spacebar to continue.</p>",32,"""","""","""","""","""","""","""","""","""","""","""","""","2021-03-16 19:09:39",68.104.142.91,"Mozilla/5.0 (Windows NT 10.0; Win64; x64) AppleWebKit/537.36 (KHTML, like Gecko) Chrome/84.0.4147.105 Safari/537.36 Edg/84.0.522.52",WebKit,Edge,84.0.522.52,Windows,10.0
35,1,3783.6899999983725,"""","""",html-keyboard-response,43,128449,0.0-3.0-3.0,cats,dogs,dogs,CDA21,"<p>We are now ready to begin the experiment.</p>
        <p>Remember, focus your attention on the fixation cross before each trial. If you think there are more cats
        press the ""S"" key. If you think there are more dogs press the ""L"" key.</p>
        <p>Good luck!</p>
        <p>Press the spacebar to begin.</p>",32,"""","""","""","""","""","""","""","""","""","""","""","""","2021-03-16 19:09:39",68.104.142.91,"Mozilla/5.0 (Windows NT 10.0; Win64; x64) AppleWebKit/537.36 (KHTML, like Gecko) Chrome/84.0.4147.105 Safari/537.36 Edg/84.0.522.52",WebKit,Edge,84.0.522.52,Windows,10.0
35,1,null,"""","""",html-keyboard-response,44,128952,0.0-4.0-0.0-0.0,cats,dogs,dogs,CDA21,"<p class=""fixation"">+</p>",null,test,1,"""","""","""","""","""","""","""","""","""","""","2021-03-16 19:09:39",68.104.142.91,"Mozilla/5.0 (Windows NT 10.0; Win64; x64) AppleWebKit/537.36 (KHTML, like Gecko) Chrome/84.0.4147.105 Safari/537.36 Edg/84.0.522.52",WebKit,Edge,84.0.522.52,Windows,10.0
35,1,1060.6999999999825,"""",respond,html-keyboard-response,45,130017,0.0-4.0-0.0-1.0,cats,dogs,dogs,CDA21,"<img src=""img/7S_10C_yellow6.jpg"" style=""width:500px;""></img>",83,test,1,1,0,img/7S_10C_yellow6.jpg,0,0,cats,cats,true,false,"""","2021-03-16 19:09:39",68.104.142.91,"Mozilla/5.0 (Windows NT 10.0; Win64; x64) AppleWebKit/537.36 (KHTML, like Gecko) Chrome/84.0.4147.105 Safari/537.36 Edg/84.0.522.52",WebKit,Edge,84.0.522.52,Windows,10.0
35,1,null,"""","""",html-keyboard-response,46,131528,0.0-4.0-0.0-4.0-0.0,cats,dogs,dogs,CDA21,"
      <div style=""position: absolute; top: 2vh; left: 2vw;"">
        <img src=""img/yellow_circle.jpeg"" style=""width:100px;""></img>
        <p>S = cats</p>
      </div>
      <div style=""position: absolute; top: 2vh; right: 2vw;"">
        <img src=""img/yellow_square.jpeg"" style=""width:100px;""></img>
        <p>L = dogs</p>
      </div>",null,test,1,"""","""","""","""","""","""","""","""","""","""","2021-03-16 19:09:39",68.104.142.91,"Mozilla/5.0 (Windows NT 10.0; Win64; x64) AppleWebKit/537.36 (KHTML, like Gecko) Chrome/84.0.4147.105 Safari/537.36 Edg/84.0.522.52",WebKit,Edge,84.0.522.52,Windows,10.0
35,1,null,"""","""",html-keyboard-response,47,132040,0.0-4.0-0.0-0.1,cats,dogs,dogs,CDA21,"<p class=""fixation"">+</p>",null,test,1,"""","""","""","""","""","""","""","""","""","""","2021-03-16 19:09:39",68.104.142.91,"Mozilla/5.0 (Windows NT 10.0; Win64; x64) AppleWebKit/537.36 (KHTML, like Gecko) Chrome/84.0.4147.105 Safari/537.36 Edg/84.0.522.52",WebKit,Edge,84.0.522.52,Windows,10.0
35,1,901.0600000001432,"""",respond,html-keyboard-response,48,132945,0.0-4.0-0.0-1.1,cats,dogs,dogs,CDA21,"<img src=""img/7C_10S_yellow5.jpg"" style=""width:500px;""></img>",76,test,1,2,1,img/7C_10S_yellow5.jpg,0,0,dogs,dogs,true,true,"""","2021-03-16 19:09:39",68.104.142.91,"Mozilla/5.0 (Windows NT 10.0; Win64; x64) AppleWebKit/537.36 (KHTML, like Gecko) Chrome/84.0.4147.105 Safari/537.36 Edg/84.0.522.52",WebKit,Edge,84.0.522.52,Windows,10.0
35,1,null,"""",reward-feedback,audio-keyboard-response,49,134448,0.0-4.0-0.0-3.1-0.1,cats,dogs,dogs,CDA21,mp3/reward-coin-drop.mp3,null,test,1,"""","""","""","""","""","""","""","""","""","""","2021-03-16 19:09:39",68.104.142.91,"Mozilla/5.0 (Windows NT 10.0; Win64; x64) AppleWebKit/537.36 (KHTML, like Gecko) Chrome/84.0.4147.105 Safari/537.36 Edg/84.0.522.52",WebKit,Edge,84.0.522.52,Windows,10.0
35,1,null,"""","""",html-keyboard-response,50,134950,0.0-4.0-0.0-0.2,cats,dogs,dogs,CDA21,"<p class=""fixation"">+</p>",null,test,1,"""","""","""","""","""","""","""","""","""","""","2021-03-16 19:09:39",68.104.142.91,"Mozilla/5.0 (Windows NT 10.0; Win64; x64) AppleWebKit/537.36 (KHTML, like Gecko) Chrome/84.0.4147.105 Safari/537.36 Edg/84.0.522.52",WebKit,Edge,84.0.522.52,Windows,10.0
35,1,850.8299999994051,"""",respond,html-keyboard-response,51,135804,0.0-4.0-0.0-1.2,cats,dogs,dogs,CDA21,"<img src=""img/7S_10C_yellow6.jpg"" style=""width:500px;""></img>",83,test,1,3,0,img/7S_10C_yellow6.jpg,0,0,cats,cats,true,false,"""","2021-03-16 19:09:39",68.104.142.91,"Mozilla/5.0 (Windows NT 10.0; Win64; x64) AppleWebKit/537.36 (KHTML, like Gecko) Chrome/84.0.4147.105 Safari/537.36 Edg/84.0.522.52",WebKit,Edge,84.0.522.52,Windows,10.0
35,1,null,"""","""",html-keyboard-response,52,137307,0.0-4.0-0.0-4.2-0.2,cats,dogs,dogs,CDA21,"
      <div style=""position: absolute; top: 2vh; left: 2vw;"">
        <img src=""img/yellow_circle.jpeg"" style=""width:100px;""></img>
        <p>S = cats</p>
      </div>
      <div style=""position: absolute; top: 2vh; right: 2vw;"">
        <img src=""img/yellow_square.jpeg"" style=""width:100px;""></img>
        <p>L = dogs</p>
      </div>",null,test,1,"""","""","""","""","""","""","""","""","""","""","2021-03-16 19:09:39",68.104.142.91,"Mozilla/5.0 (Windows NT 10.0; Win64; x64) AppleWebKit/537.36 (KHTML, like Gecko) Chrome/84.0.4147.105 Safari/537.36 Edg/84.0.522.52",WebKit,Edge,84.0.522.52,Windows,10.0
35,1,null,"""","""",html-keyboard-response,53,137808,0.0-4.0-0.0-0.3,cats,dogs,dogs,CDA21,"<p class=""fixation"">+</p>",null,test,1,"""","""","""","""","""","""","""","""","""","""","2021-03-16 19:09:39",68.104.142.91,"Mozilla/5.0 (Windows NT 10.0; Win64; x64) AppleWebKit/537.36 (KHTML, like Gecko) Chrome/84.0.4147.105 Safari/537.36 Edg/84.0.522.52",WebKit,Edge,84.0.522.52,Windows,10.0
35,1,607.8950000010082,"""",respond,html-keyboard-response,54,138420,0.0-4.0-0.0-1.3,cats,dogs,dogs,CDA21,"<img src=""img/7C_10S_yellow3.jpg"" style=""width:500px;""></img>",76,test,1,4,1,img/7C_10S_yellow3.jpg,0,0,dogs,dogs,true,true,"""","2021-03-16 19:09:39",68.104.142.91,"Mozilla/5.0 (Windows NT 10.0; Win64; x64) AppleWebKit/537.36 (KHTML, like Gecko) Chrome/84.0.4147.105 Safari/537.36 Edg/84.0.522.52",WebKit,Edge,84.0.522.52,Windows,10.0
35,1,null,"""",reward-feedback,audio-keyboard-response,55,139924,0.0-4.0-0.0-3.3-0.3,cats,dogs,dogs,CDA21,mp3/reward-coin-drop.mp3,null,test,1,"""","""","""","""","""","""","""","""","""","""","2021-03-16 19:09:39",68.104.142.91,"Mozilla/5.0 (Windows NT 10.0; Win64; x64) AppleWebKit/537.36 (KHTML, like Gecko) Chrome/84.0.4147.105 Safari/537.36 Edg/84.0.522.52",WebKit,Edge,84.0.522.52,Windows,10.0
35,1,null,"""","""",html-keyboard-response,56,140427,0.0-4.0-0.0-0.4,cats,dogs,dogs,CDA21,"<p class=""fixation"">+</p>",null,test,1,"""","""","""","""","""","""","""","""","""","""","2021-03-16 19:09:39",68.104.142.91,"Mozilla/5.0 (Windows NT 10.0; Win64; x64) AppleWebKit/537.36 (KHTML, like Gecko) Chrome/84.0.4147.105 Safari/537.36 Edg/84.0.522.52",WebKit,Edge,84.0.522.52,Windows,10.0
35,1,947.1850000008999,"""",respond,html-keyboard-response,57,141376,0.0-4.0-0.0-1.4,cats,dogs,dogs,CDA21,"<img src=""img/7S_10C_yellow7.jpg"" style=""width:500px;""></img>",76,test,1,5,0,img/7S_10C_yellow7.jpg,0,0,cats,dogs,false,false,"""","2021-03-16 19:09:39",68.104.142.91,"Mozilla/5.0 (Windows NT 10.0; Win64; x64) AppleWebKit/537.36 (KHTML, like Gecko) Chrome/84.0.4147.105 Safari/537.36 Edg/84.0.522.52",WebKit,Edge,84.0.522.52,Windows,10.0
35,1,null,"""","""",html-keyboard-response,58,142881,0.0-4.0-0.0-4.4-0.4,cats,dogs,dogs,CDA21,"
      <div style=""position: absolute; top: 2vh; left: 2vw;"">
        <img src=""img/yellow_circle.jpeg"" style=""width:100px;""></img>
        <p>S = cats</p>
      </div>
      <div style=""position: absolute; top: 2vh; right: 2vw;"">
        <img src=""img/yellow_square.jpeg"" style=""width:100px;""></img>
        <p>L = dogs</p>
      </div>",null,test,1,"""","""","""","""","""","""","""","""","""","""","2021-03-16 19:09:39",68.104.142.91,"Mozilla/5.0 (Windows NT 10.0; Win64; x64) AppleWebKit/537.36 (KHTML, like Gecko) Chrome/84.0.4147.105 Safari/537.36 Edg/84.0.522.52",WebKit,Edge,84.0.522.52,Windows,10.0
35,1,null,"""","""",html-keyboard-response,59,143383,0.0-4.0-0.0-0.5,cats,dogs,dogs,CDA21,"<p class=""fixation"">+</p>",null,test,1,"""","""","""","""","""","""","""","""","""","""","2021-03-16 19:09:39",68.104.142.91,"Mozilla/5.0 (Windows NT 10.0; Win64; x64) AppleWebKit/537.36 (KHTML, like Gecko) Chrome/84.0.4147.105 Safari/537.36 Edg/84.0.522.52",WebKit,Edge,84.0.522.52,Windows,10.0
35,1,977.8050000004587,"""",respond,html-keyboard-response,60,144362,0.0-4.0-0.0-1.5,cats,dogs,dogs,CDA21,"<img src=""img/7S_10C_yellow7.jpg"" style=""width:500px;""></img>",83,test,1,6,0,img/7S_10C_yellow7.jpg,0,0,cats,cats,true,false,"""","2021-03-16 19:09:39",68.104.142.91,"Mozilla/5.0 (Windows NT 10.0; Win64; x64) AppleWebKit/537.36 (KHTML, like Gecko) Chrome/84.0.4147.105 Safari/537.36 Edg/84.0.522.52",WebKit,Edge,84.0.522.52,Windows,10.0
35,1,null,"""","""",html-keyboard-response,61,145867,0.0-4.0-0.0-4.5-0.5,cats,dogs,dogs,CDA21,"
      <div style=""position: absolute; top: 2vh; left: 2vw;"">
        <img src=""img/yellow_circle.jpeg"" style=""width:100px;""></img>
        <p>S = cats</p>
      </div>
      <div style=""position: absolute; top: 2vh; right: 2vw;"">
        <img src=""img/yellow_square.jpeg"" style=""width:100px;""></img>
        <p>L = dogs</p>
      </div>",null,test,1,"""","""","""","""","""","""","""","""","""","""","2021-03-16 19:09:39",68.104.142.91,"Mozilla/5.0 (Windows NT 10.0; Win64; x64) AppleWebKit/537.36 (KHTML, like Gecko) Chrome/84.0.4147.105 Safari/537.36 Edg/84.0.522.52",WebKit,Edge,84.0.522.52,Windows,10.0
35,1,null,"""","""",html-keyboard-response,62,146369,0.0-4.0-0.0-0.6,cats,dogs,dogs,CDA21,"<p class=""fixation"">+</p>",null,test,1,"""","""","""","""","""","""","""","""","""","""","2021-03-16 19:09:39",68.104.142.91,"Mozilla/5.0 (Windows NT 10.0; Win64; x64) AppleWebKit/537.36 (KHTML, like Gecko) Chrome/84.0.4147.105 Safari/537.36 Edg/84.0.522.52",WebKit,Edge,84.0.522.52,Windows,10.0
35,1,659.7600000004459,"""",respond,html-keyboard-response,63,147031,0.0-4.0-0.0-1.6,cats,dogs,dogs,CDA21,"<img src=""img/7S_10C_yellow6.jpg"" style=""width:500px;""></img>",83,test,1,7,0,img/7S_10C_yellow6.jpg,0,0,cats,cats,true,false,"""","2021-03-16 19:09:39",68.104.142.91,"Mozilla/5.0 (Windows NT 10.0; Win64; x64) AppleWebKit/537.36 (KHTML, like Gecko) Chrome/84.0.4147.105 Safari/537.36 Edg/84.0.522.52",WebKit,Edge,84.0.522.52,Windows,10.0
35,1,null,"""","""",html-keyboard-response,64,148533,0.0-4.0-0.0-4.6-0.6,cats,dogs,dogs,CDA21,"
      <div style=""position: absolute; top: 2vh; left: 2vw;"">
        <img src=""img/yellow_circle.jpeg"" style=""width:100px;""></img>
        <p>S = cats</p>
      </div>
      <div style=""position: absolute; top: 2vh; right: 2vw;"">
        <img src=""img/yellow_square.jpeg"" style=""width:100px;""></img>
        <p>L = dogs</p>
      </div>",null,test,1,"""","""","""","""","""","""","""","""","""","""","2021-03-16 19:09:39",68.104.142.91,"Mozilla/5.0 (Windows NT 10.0; Win64; x64) AppleWebKit/537.36 (KHTML, like Gecko) Chrome/84.0.4147.105 Safari/537.36 Edg/84.0.522.52",WebKit,Edge,84.0.522.52,Windows,10.0
35,1,null,"""","""",html-keyboard-response,65,149038,0.0-4.0-0.0-0.7,cats,dogs,dogs,CDA21,"<p class=""fixation"">+</p>",null,test,1,"""","""","""","""","""","""","""","""","""","""","2021-03-16 19:09:39",68.104.142.91,"Mozilla/5.0 (Windows NT 10.0; Win64; x64) AppleWebKit/537.36 (KHTML, like Gecko) Chrome/84.0.4147.105 Safari/537.36 Edg/84.0.522.52",WebKit,Edge,84.0.522.52,Windows,10.0
35,1,795.4499999996042,"""",respond,html-keyboard-response,66,149835,0.0-4.0-0.0-1.7,cats,dogs,dogs,CDA21,"<img src=""img/7C_10S_yellow5.jpg"" style=""width:500px;""></img>",76,test,1,8,1,img/7C_10S_yellow5.jpg,0,0,dogs,dogs,true,true,"""","2021-03-16 19:09:39",68.104.142.91,"Mozilla/5.0 (Windows NT 10.0; Win64; x64) AppleWebKit/537.36 (KHTML, like Gecko) Chrome/84.0.4147.105 Safari/537.36 Edg/84.0.522.52",WebKit,Edge,84.0.522.52,Windows,10.0
35,1,null,"""",reward-feedback,audio-keyboard-response,67,151338,0.0-4.0-0.0-3.7-0.7,cats,dogs,dogs,CDA21,mp3/reward-coin-drop.mp3,null,test,1,"""","""","""","""","""","""","""","""","""","""","2021-03-16 19:09:39",68.104.142.91,"Mozilla/5.0 (Windows NT 10.0; Win64; x64) AppleWebKit/537.36 (KHTML, like Gecko) Chrome/84.0.4147.105 Safari/537.36 Edg/84.0.522.52",WebKit,Edge,84.0.522.52,Windows,10.0
35,1,null,"""","""",html-keyboard-response,68,151843,0.0-4.0-0.0-0.8,cats,dogs,dogs,CDA21,"<p class=""fixation"">+</p>",null,test,1,"""","""","""","""","""","""","""","""","""","""","2021-03-16 19:09:39",68.104.142.91,"Mozilla/5.0 (Windows NT 10.0; Win64; x64) AppleWebKit/537.36 (KHTML, like Gecko) Chrome/84.0.4147.105 Safari/537.36 Edg/84.0.522.52",WebKit,Edge,84.0.522.52,Windows,10.0
35,1,784.7300000012037,"""",respond,html-keyboard-response,69,152629,0.0-4.0-0.0-1.8,cats,dogs,dogs,CDA21,"<img src=""img/7S_10C_yellow9.jpg"" style=""width:500px;""></img>",76,test,1,9,0,img/7S_10C_yellow9.jpg,0,0,cats,dogs,false,false,"""","2021-03-16 19:09:39",68.104.142.91,"Mozilla/5.0 (Windows NT 10.0; Win64; x64) AppleWebKit/537.36 (KHTML, like Gecko) Chrome/84.0.4147.105 Safari/537.36 Edg/84.0.522.52",WebKit,Edge,84.0.522.52,Windows,10.0
35,1,null,"""","""",html-keyboard-response,70,154130,0.0-4.0-0.0-4.8-0.8,cats,dogs,dogs,CDA21,"
      <div style=""position: absolute; top: 2vh; left: 2vw;"">
        <img src=""img/yellow_circle.jpeg"" style=""width:100px;""></img>
        <p>S = cats</p>
      </div>
      <div style=""position: absolute; top: 2vh; right: 2vw;"">
        <img src=""img/yellow_square.jpeg"" style=""width:100px;""></img>
        <p>L = dogs</p>
      </div>",null,test,1,"""","""","""","""","""","""","""","""","""","""","2021-03-16 19:09:39",68.104.142.91,"Mozilla/5.0 (Windows NT 10.0; Win64; x64) AppleWebKit/537.36 (KHTML, like Gecko) Chrome/84.0.4147.105 Safari/537.36 Edg/84.0.522.52",WebKit,Edge,84.0.522.52,Windows,10.0
35,1,null,"""","""",html-keyboard-response,71,154636,0.0-4.0-0.0-0.9,cats,dogs,dogs,CDA21,"<p class=""fixation"">+</p>",null,test,1,"""","""","""","""","""","""","""","""","""","""","2021-03-16 19:09:39",68.104.142.91,"Mozilla/5.0 (Windows NT 10.0; Win64; x64) AppleWebKit/537.36 (KHTML, like Gecko) Chrome/84.0.4147.105 Safari/537.36 Edg/84.0.522.52",WebKit,Edge,84.0.522.52,Windows,10.0
35,1,986.8999999998778,"""",respond,html-keyboard-response,72,155625,0.0-4.0-0.0-1.9,cats,dogs,dogs,CDA21,"<img src=""img/7S_10C_yellow10.jpg"" style=""width:500px;""></img>",83,test,1,10,1,img/7S_10C_yellow10.jpg,0,0,cats,cats,true,true,"""","2021-03-16 19:09:39",68.104.142.91,"Mozilla/5.0 (Windows NT 10.0; Win64; x64) AppleWebKit/537.36 (KHTML, like Gecko) Chrome/84.0.4147.105 Safari/537.36 Edg/84.0.522.52",WebKit,Edge,84.0.522.52,Windows,10.0
35,1,null,"""",reward-feedback,audio-keyboard-response,73,157128,0.0-4.0-0.0-3.9-0.9,cats,dogs,dogs,CDA21,mp3/reward-coin-drop.mp3,null,test,1,"""","""","""","""","""","""","""","""","""","""","2021-03-16 19:09:39",68.104.142.91,"Mozilla/5.0 (Windows NT 10.0; Win64; x64) AppleWebKit/537.36 (KHTML, like Gecko) Chrome/84.0.4147.105 Safari/537.36 Edg/84.0.522.52",WebKit,Edge,84.0.522.52,Windows,10.0
35,1,null,"""","""",html-keyboard-response,74,157632,0.0-4.0-0.0-0.10,cats,dogs,dogs,CDA21,"<p class=""fixation"">+</p>",null,test,1,"""","""","""","""","""","""","""","""","""","""","2021-03-16 19:09:39",68.104.142.91,"Mozilla/5.0 (Windows NT 10.0; Win64; x64) AppleWebKit/537.36 (KHTML, like Gecko) Chrome/84.0.4147.105 Safari/537.36 Edg/84.0.522.52",WebKit,Edge,84.0.522.52,Windows,10.0
35,1,759.6049999992829,"""",respond,html-keyboard-response,75,158393,0.0-4.0-0.0-1.10,cats,dogs,dogs,CDA21,"<img src=""img/7C_10S_yellow4.jpg"" style=""width:500px;""></img>",76,test,1,11,1,img/7C_10S_yellow4.jpg,0,0,dogs,dogs,true,true,"""","2021-03-16 19:09:39",68.104.142.91,"Mozilla/5.0 (Windows NT 10.0; Win64; x64) AppleWebKit/537.36 (KHTML, like Gecko) Chrome/84.0.4147.105 Safari/537.36 Edg/84.0.522.52",WebKit,Edge,84.0.522.52,Windows,10.0
35,1,null,"""",reward-feedback,audio-keyboard-response,76,159896,0.0-4.0-0.0-3.10-0.10,cats,dogs,dogs,CDA21,mp3/reward-coin-drop.mp3,null,test,1,"""","""","""","""","""","""","""","""","""","""","2021-03-16 19:09:39",68.104.142.91,"Mozilla/5.0 (Windows NT 10.0; Win64; x64) AppleWebKit/537.36 (KHTML, like Gecko) Chrome/84.0.4147.105 Safari/537.36 Edg/84.0.522.52",WebKit,Edge,84.0.522.52,Windows,10.0
35,1,null,"""","""",html-keyboard-response,77,160401,0.0-4.0-0.0-0.11,cats,dogs,dogs,CDA21,"<p class=""fixation"">+</p>",null,test,1,"""","""","""","""","""","""","""","""","""","""","2021-03-16 19:09:39",68.104.142.91,"Mozilla/5.0 (Windows NT 10.0; Win64; x64) AppleWebKit/537.36 (KHTML, like Gecko) Chrome/84.0.4147.105 Safari/537.36 Edg/84.0.522.52",WebKit,Edge,84.0.522.52,Windows,10.0
35,1,935.5450000002747,"""",respond,html-keyboard-response,78,161338,0.0-4.0-0.0-1.11,cats,dogs,dogs,CDA21,"<img src=""img/7S_10C_yellow10.jpg"" style=""width:500px;""></img>",83,test,1,12,0,img/7S_10C_yellow10.jpg,0,0,cats,cats,true,false,"""","2021-03-16 19:09:39",68.104.142.91,"Mozilla/5.0 (Windows NT 10.0; Win64; x64) AppleWebKit/537.36 (KHTML, like Gecko) Chrome/84.0.4147.105 Safari/537.36 Edg/84.0.522.52",WebKit,Edge,84.0.522.52,Windows,10.0
35,1,null,"""","""",html-keyboard-response,79,162840,0.0-4.0-0.0-4.11-0.11,cats,dogs,dogs,CDA21,"
      <div style=""position: absolute; top: 2vh; left: 2vw;"">
        <img src=""img/yellow_circle.jpeg"" style=""width:100px;""></img>
        <p>S = cats</p>
      </div>
      <div style=""position: absolute; top: 2vh; right: 2vw;"">
        <img src=""img/yellow_square.jpeg"" style=""width:100px;""></img>
        <p>L = dogs</p>
      </div>",null,test,1,"""","""","""","""","""","""","""","""","""","""","2021-03-16 19:09:39",68.104.142.91,"Mozilla/5.0 (Windows NT 10.0; Win64; x64) AppleWebKit/537.36 (KHTML, like Gecko) Chrome/84.0.4147.105 Safari/537.36 Edg/84.0.522.52",WebKit,Edge,84.0.522.52,Windows,10.0
35,1,null,"""","""",html-keyboard-response,80,163345,0.0-4.0-0.0-0.12,cats,dogs,dogs,CDA21,"<p class=""fixation"">+</p>",null,test,1,"""","""","""","""","""","""","""","""","""","""","2021-03-16 19:09:39",68.104.142.91,"Mozilla/5.0 (Windows NT 10.0; Win64; x64) AppleWebKit/537.36 (KHTML, like Gecko) Chrome/84.0.4147.105 Safari/537.36 Edg/84.0.522.52",WebKit,Edge,84.0.522.52,Windows,10.0
35,1,722.8800000011688,"""",respond,html-keyboard-response,81,164070,0.0-4.0-0.0-1.12,cats,dogs,dogs,CDA21,"<img src=""img/7C_10S_yellow4.jpg"" style=""width:500px;""></img>",76,test,1,13,1,img/7C_10S_yellow4.jpg,0,0,dogs,dogs,true,true,"""","2021-03-16 19:09:39",68.104.142.91,"Mozilla/5.0 (Windows NT 10.0; Win64; x64) AppleWebKit/537.36 (KHTML, like Gecko) Chrome/84.0.4147.105 Safari/537.36 Edg/84.0.522.52",WebKit,Edge,84.0.522.52,Windows,10.0
35,1,null,"""",reward-feedback,audio-keyboard-response,82,165573,0.0-4.0-0.0-3.12-0.12,cats,dogs,dogs,CDA21,mp3/reward-coin-drop.mp3,null,test,1,"""","""","""","""","""","""","""","""","""","""","2021-03-16 19:09:39",68.104.142.91,"Mozilla/5.0 (Windows NT 10.0; Win64; x64) AppleWebKit/537.36 (KHTML, like Gecko) Chrome/84.0.4147.105 Safari/537.36 Edg/84.0.522.52",WebKit,Edge,84.0.522.52,Windows,10.0
35,1,null,"""","""",html-keyboard-response,83,166076,0.0-4.0-0.0-0.13,cats,dogs,dogs,CDA21,"<p class=""fixation"">+</p>",null,test,1,"""","""","""","""","""","""","""","""","""","""","2021-03-16 19:09:39",68.104.142.91,"Mozilla/5.0 (Windows NT 10.0; Win64; x64) AppleWebKit/537.36 (KHTML, like Gecko) Chrome/84.0.4147.105 Safari/537.36 Edg/84.0.522.52",WebKit,Edge,84.0.522.52,Windows,10.0
35,1,775.589999999298,"""",respond,html-keyboard-response,84,166855,0.0-4.0-0.0-1.13,cats,dogs,dogs,CDA21,"<img src=""img/7S_10C_yellow8.jpg"" style=""width:500px;""></img>",83,test,1,14,1,img/7S_10C_yellow8.jpg,0,0,cats,cats,true,true,"""","2021-03-16 19:09:39",68.104.142.91,"Mozilla/5.0 (Windows NT 10.0; Win64; x64) AppleWebKit/537.36 (KHTML, like Gecko) Chrome/84.0.4147.105 Safari/537.36 Edg/84.0.522.52",WebKit,Edge,84.0.522.52,Windows,10.0
35,1,null,"""",reward-feedback,audio-keyboard-response,85,168358,0.0-4.0-0.0-3.13-0.13,cats,dogs,dogs,CDA21,mp3/reward-coin-drop.mp3,null,test,1,"""","""","""","""","""","""","""","""","""","""","2021-03-16 19:09:39",68.104.142.91,"Mozilla/5.0 (Windows NT 10.0; Win64; x64) AppleWebKit/537.36 (KHTML, like Gecko) Chrome/84.0.4147.105 Safari/537.36 Edg/84.0.522.52",WebKit,Edge,84.0.522.52,Windows,10.0
35,1,null,"""","""",html-keyboard-response,86,168859,0.0-4.0-0.0-0.14,cats,dogs,dogs,CDA21,"<p class=""fixation"">+</p>",null,test,1,"""","""","""","""","""","""","""","""","""","""","2021-03-16 19:09:39",68.104.142.91,"Mozilla/5.0 (Windows NT 10.0; Win64; x64) AppleWebKit/537.36 (KHTML, like Gecko) Chrome/84.0.4147.105 Safari/537.36 Edg/84.0.522.52",WebKit,Edge,84.0.522.52,Windows,10.0
35,1,622.690000000177,"""",respond,html-keyboard-response,87,169486,0.0-4.0-0.0-1.14,cats,dogs,dogs,CDA21,"<img src=""img/7C_10S_yellow6.jpg"" style=""width:500px;""></img>",76,test,1,15,0,img/7C_10S_yellow6.jpg,0,0,dogs,dogs,true,false,"""","2021-03-16 19:09:39",68.104.142.91,"Mozilla/5.0 (Windows NT 10.0; Win64; x64) AppleWebKit/537.36 (KHTML, like Gecko) Chrome/84.0.4147.105 Safari/537.36 Edg/84.0.522.52",WebKit,Edge,84.0.522.52,Windows,10.0
35,1,null,"""","""",html-keyboard-response,88,170988,0.0-4.0-0.0-4.14-0.14,cats,dogs,dogs,CDA21,"
      <div style=""position: absolute; top: 2vh; left: 2vw;"">
        <img src=""img/yellow_circle.jpeg"" style=""width:100px;""></img>
        <p>S = cats</p>
      </div>
      <div style=""position: absolute; top: 2vh; right: 2vw;"">
        <img src=""img/yellow_square.jpeg"" style=""width:100px;""></img>
        <p>L = dogs</p>
      </div>",null,test,1,"""","""","""","""","""","""","""","""","""","""","2021-03-16 19:09:39",68.104.142.91,"Mozilla/5.0 (Windows NT 10.0; Win64; x64) AppleWebKit/537.36 (KHTML, like Gecko) Chrome/84.0.4147.105 Safari/537.36 Edg/84.0.522.52",WebKit,Edge,84.0.522.52,Windows,10.0
35,1,null,"""","""",html-keyboard-response,89,171490,0.0-4.0-0.0-0.15,cats,dogs,dogs,CDA21,"<p class=""fixation"">+</p>",null,test,1,"""","""","""","""","""","""","""","""","""","""","2021-03-16 19:09:39",68.104.142.91,"Mozilla/5.0 (Windows NT 10.0; Win64; x64) AppleWebKit/537.36 (KHTML, like Gecko) Chrome/84.0.4147.105 Safari/537.36 Edg/84.0.522.52",WebKit,Edge,84.0.522.52,Windows,10.0
35,1,808.6500000008673,"""",respond,html-keyboard-response,90,172301,0.0-4.0-0.0-1.15,cats,dogs,dogs,CDA21,"<img src=""img/7C_10S_yellow5.jpg"" style=""width:500px;""></img>",83,test,1,16,1,img/7C_10S_yellow5.jpg,0,0,dogs,cats,false,false,"""","2021-03-16 19:09:39",68.104.142.91,"Mozilla/5.0 (Windows NT 10.0; Win64; x64) AppleWebKit/537.36 (KHTML, like Gecko) Chrome/84.0.4147.105 Safari/537.36 Edg/84.0.522.52",WebKit,Edge,84.0.522.52,Windows,10.0
35,1,null,"""","""",html-keyboard-response,91,173806,0.0-4.0-0.0-4.15-0.15,cats,dogs,dogs,CDA21,"
      <div style=""position: absolute; top: 2vh; left: 2vw;"">
        <img src=""img/yellow_circle.jpeg"" style=""width:100px;""></img>
        <p>S = cats</p>
      </div>
      <div style=""position: absolute; top: 2vh; right: 2vw;"">
        <img src=""img/yellow_square.jpeg"" style=""width:100px;""></img>
        <p>L = dogs</p>
      </div>",null,test,1,"""","""","""","""","""","""","""","""","""","""","2021-03-16 19:09:39",68.104.142.91,"Mozilla/5.0 (Windows NT 10.0; Win64; x64) AppleWebKit/537.36 (KHTML, like Gecko) Chrome/84.0.4147.105 Safari/537.36 Edg/84.0.522.52",WebKit,Edge,84.0.522.52,Windows,10.0
35,1,null,"""","""",html-keyboard-response,92,174308,0.0-4.0-0.0-0.16,cats,dogs,dogs,CDA21,"<p class=""fixation"">+</p>",null,test,1,"""","""","""","""","""","""","""","""","""","""","2021-03-16 19:09:39",68.104.142.91,"Mozilla/5.0 (Windows NT 10.0; Win64; x64) AppleWebKit/537.36 (KHTML, like Gecko) Chrome/84.0.4147.105 Safari/537.36 Edg/84.0.522.52",WebKit,Edge,84.0.522.52,Windows,10.0
35,1,642.4599999991187,"""",respond,html-keyboard-response,93,174952,0.0-4.0-0.0-1.16,cats,dogs,dogs,CDA21,"<img src=""img/7S_10C_yellow8.jpg"" style=""width:500px;""></img>",83,test,1,17,0,img/7S_10C_yellow8.jpg,0,1,cats,cats,true,false,"""","2021-03-16 19:09:39",68.104.142.91,"Mozilla/5.0 (Windows NT 10.0; Win64; x64) AppleWebKit/537.36 (KHTML, like Gecko) Chrome/84.0.4147.105 Safari/537.36 Edg/84.0.522.52",WebKit,Edge,84.0.522.52,Windows,10.0
35,1,null,"""","""",html-keyboard-response,94,176454,0.0-4.0-0.0-4.16-0.16,cats,dogs,dogs,CDA21,"
      <div style=""position: absolute; top: 2vh; left: 2vw;"">
        <img src=""img/yellow_circle.jpeg"" style=""width:100px;""></img>
        <p>S = cats</p>
      </div>
      <div style=""position: absolute; top: 2vh; right: 2vw;"">
        <img src=""img/yellow_square.jpeg"" style=""width:100px;""></img>
        <p>L = dogs</p>
      </div>",null,test,1,"""","""","""","""","""","""","""","""","""","""","2021-03-16 19:09:39",68.104.142.91,"Mozilla/5.0 (Windows NT 10.0; Win64; x64) AppleWebKit/537.36 (KHTML, like Gecko) Chrome/84.0.4147.105 Safari/537.36 Edg/84.0.522.52",WebKit,Edge,84.0.522.52,Windows,10.0
35,1,null,"""","""",html-keyboard-response,95,176960,0.0-4.0-0.0-0.17,cats,dogs,dogs,CDA21,"<p class=""fixation"">+</p>",null,test,1,"""","""","""","""","""","""","""","""","""","""","2021-03-16 19:09:39",68.104.142.91,"Mozilla/5.0 (Windows NT 10.0; Win64; x64) AppleWebKit/537.36 (KHTML, like Gecko) Chrome/84.0.4147.105 Safari/537.36 Edg/84.0.522.52",WebKit,Edge,84.0.522.52,Windows,10.0
35,1,1280.3000000003376,"""",respond,html-keyboard-response,96,178243,0.0-4.0-0.0-1.17,cats,dogs,dogs,CDA21,"<img src=""img/7S_10C_yellow7.jpg"" style=""width:500px;""></img>",83,test,1,18,0,img/7S_10C_yellow7.jpg,0,1,cats,cats,true,false,"""","2021-03-16 19:09:39",68.104.142.91,"Mozilla/5.0 (Windows NT 10.0; Win64; x64) AppleWebKit/537.36 (KHTML, like Gecko) Chrome/84.0.4147.105 Safari/537.36 Edg/84.0.522.52",WebKit,Edge,84.0.522.52,Windows,10.0
35,1,null,"""","""",html-keyboard-response,97,179759,0.0-4.0-0.0-4.17-0.17,cats,dogs,dogs,CDA21,"
      <div style=""position: absolute; top: 2vh; left: 2vw;"">
        <img src=""img/yellow_circle.jpeg"" style=""width:100px;""></img>
        <p>S = cats</p>
      </div>
      <div style=""position: absolute; top: 2vh; right: 2vw;"">
        <img src=""img/yellow_square.jpeg"" style=""width:100px;""></img>
        <p>L = dogs</p>
      </div>",null,test,1,"""","""","""","""","""","""","""","""","""","""","2021-03-16 19:09:39",68.104.142.91,"Mozilla/5.0 (Windows NT 10.0; Win64; x64) AppleWebKit/537.36 (KHTML, like Gecko) Chrome/84.0.4147.105 Safari/537.36 Edg/84.0.522.52",WebKit,Edge,84.0.522.52,Windows,10.0
35,1,null,"""","""",html-keyboard-response,98,180272,0.0-4.0-0.0-0.18,cats,dogs,dogs,CDA21,"<p class=""fixation"">+</p>",null,test,1,"""","""","""","""","""","""","""","""","""","""","2021-03-16 19:09:39",68.104.142.91,"Mozilla/5.0 (Windows NT 10.0; Win64; x64) AppleWebKit/537.36 (KHTML, like Gecko) Chrome/84.0.4147.105 Safari/537.36 Edg/84.0.522.52",WebKit,Edge,84.0.522.52,Windows,10.0
35,1,819.7899999995716,"""",respond,html-keyboard-response,99,181093,0.0-4.0-0.0-1.18,cats,dogs,dogs,CDA21,"<img src=""img/7S_10C_yellow10.jpg"" style=""width:500px;""></img>",83,test,1,19,1,img/7S_10C_yellow10.jpg,0,1,cats,cats,true,true,"""","2021-03-16 19:09:39",68.104.142.91,"Mozilla/5.0 (Windows NT 10.0; Win64; x64) AppleWebKit/537.36 (KHTML, like Gecko) Chrome/84.0.4147.105 Safari/537.36 Edg/84.0.522.52",WebKit,Edge,84.0.522.52,Windows,10.0
35,1,null,"""",reward-feedback,audio-keyboard-response,100,182598,0.0-4.0-0.0-3.18-0.18,cats,dogs,dogs,CDA21,mp3/reward-coin-drop.mp3,null,test,1,"""","""","""","""","""","""","""","""","""","""","2021-03-16 19:09:39",68.104.142.91,"Mozilla/5.0 (Windows NT 10.0; Win64; x64) AppleWebKit/537.36 (KHTML, like Gecko) Chrome/84.0.4147.105 Safari/537.36 Edg/84.0.522.52",WebKit,Edge,84.0.522.52,Windows,10.0
35,1,null,"""","""",html-keyboard-response,101,183103,0.0-4.0-0.0-0.19,cats,dogs,dogs,CDA21,"<p class=""fixation"">+</p>",null,test,1,"""","""","""","""","""","""","""","""","""","""","2021-03-16 19:09:39",68.104.142.91,"Mozilla/5.0 (Windows NT 10.0; Win64; x64) AppleWebKit/537.36 (KHTML, like Gecko) Chrome/84.0.4147.105 Safari/537.36 Edg/84.0.522.52",WebKit,Edge,84.0.522.52,Windows,10.0
35,1,713.7700000003097,"""",respond,html-keyboard-response,102,183818,0.0-4.0-0.0-1.19,cats,dogs,dogs,CDA21,"<img src=""img/7C_10S_yellow5.jpg"" style=""width:500px;""></img>",76,test,1,20,1,img/7C_10S_yellow5.jpg,0,1,dogs,dogs,true,true,"""","2021-03-16 19:09:39",68.104.142.91,"Mozilla/5.0 (Windows NT 10.0; Win64; x64) AppleWebKit/537.36 (KHTML, like Gecko) Chrome/84.0.4147.105 Safari/537.36 Edg/84.0.522.52",WebKit,Edge,84.0.522.52,Windows,10.0
35,1,null,"""",reward-feedback,audio-keyboard-response,103,185320,0.0-4.0-0.0-3.19-0.19,cats,dogs,dogs,CDA21,mp3/reward-coin-drop.mp3,null,test,1,"""","""","""","""","""","""","""","""","""","""","2021-03-16 19:09:39",68.104.142.91,"Mozilla/5.0 (Windows NT 10.0; Win64; x64) AppleWebKit/537.36 (KHTML, like Gecko) Chrome/84.0.4147.105 Safari/537.36 Edg/84.0.522.52",WebKit,Edge,84.0.522.52,Windows,10.0
35,1,null,"""","""",html-keyboard-response,104,185826,0.0-4.0-0.0-0.20,cats,dogs,dogs,CDA21,"<p class=""fixation"">+</p>",null,test,1,"""","""","""","""","""","""","""","""","""","""","2021-03-16 19:09:39",68.104.142.91,"Mozilla/5.0 (Windows NT 10.0; Win64; x64) AppleWebKit/537.36 (KHTML, like Gecko) Chrome/84.0.4147.105 Safari/537.36 Edg/84.0.522.52",WebKit,Edge,84.0.522.52,Windows,10.0
35,1,658.2749999997905,"""",respond,html-keyboard-response,105,186486,0.0-4.0-0.0-1.20,cats,dogs,dogs,CDA21,"<img src=""img/7C_10S_yellow5.jpg"" style=""width:500px;""></img>",76,test,1,21,0,img/7C_10S_yellow5.jpg,0,1,dogs,dogs,true,false,"""","2021-03-16 19:09:39",68.104.142.91,"Mozilla/5.0 (Windows NT 10.0; Win64; x64) AppleWebKit/537.36 (KHTML, like Gecko) Chrome/84.0.4147.105 Safari/537.36 Edg/84.0.522.52",WebKit,Edge,84.0.522.52,Windows,10.0
35,1,null,"""","""",html-keyboard-response,106,187987,0.0-4.0-0.0-4.20-0.20,cats,dogs,dogs,CDA21,"
      <div style=""position: absolute; top: 2vh; left: 2vw;"">
        <img src=""img/yellow_circle.jpeg"" style=""width:100px;""></img>
        <p>S = cats</p>
      </div>
      <div style=""position: absolute; top: 2vh; right: 2vw;"">
        <img src=""img/yellow_square.jpeg"" style=""width:100px;""></img>
        <p>L = dogs</p>
      </div>",null,test,1,"""","""","""","""","""","""","""","""","""","""","2021-03-16 19:09:39",68.104.142.91,"Mozilla/5.0 (Windows NT 10.0; Win64; x64) AppleWebKit/537.36 (KHTML, like Gecko) Chrome/84.0.4147.105 Safari/537.36 Edg/84.0.522.52",WebKit,Edge,84.0.522.52,Windows,10.0
35,1,null,"""","""",html-keyboard-response,107,188490,0.0-4.0-0.0-0.21,cats,dogs,dogs,CDA21,"<p class=""fixation"">+</p>",null,test,1,"""","""","""","""","""","""","""","""","""","""","2021-03-16 19:09:39",68.104.142.91,"Mozilla/5.0 (Windows NT 10.0; Win64; x64) AppleWebKit/537.36 (KHTML, like Gecko) Chrome/84.0.4147.105 Safari/537.36 Edg/84.0.522.52",WebKit,Edge,84.0.522.52,Windows,10.0
35,1,1049.895000000106,"""",respond,html-keyboard-response,108,189545,0.0-4.0-0.0-1.21,cats,dogs,dogs,CDA21,"<img src=""img/7S_10C_yellow6.jpg"" style=""width:500px;""></img>",83,test,1,22,0,img/7S_10C_yellow6.jpg,0,0,cats,cats,true,false,"""","2021-03-16 19:09:39",68.104.142.91,"Mozilla/5.0 (Windows NT 10.0; Win64; x64) AppleWebKit/537.36 (KHTML, like Gecko) Chrome/84.0.4147.105 Safari/537.36 Edg/84.0.522.52",WebKit,Edge,84.0.522.52,Windows,10.0
35,1,null,"""","""",html-keyboard-response,109,191046,0.0-4.0-0.0-4.21-0.21,cats,dogs,dogs,CDA21,"
      <div style=""position: absolute; top: 2vh; left: 2vw;"">
        <img src=""img/yellow_circle.jpeg"" style=""width:100px;""></img>
        <p>S = cats</p>
      </div>
      <div style=""position: absolute; top: 2vh; right: 2vw;"">
        <img src=""img/yellow_square.jpeg"" style=""width:100px;""></img>
        <p>L = dogs</p>
      </div>",null,test,1,"""","""","""","""","""","""","""","""","""","""","2021-03-16 19:09:39",68.104.142.91,"Mozilla/5.0 (Windows NT 10.0; Win64; x64) AppleWebKit/537.36 (KHTML, like Gecko) Chrome/84.0.4147.105 Safari/537.36 Edg/84.0.522.52",WebKit,Edge,84.0.522.52,Windows,10.0
35,1,null,"""","""",html-keyboard-response,110,191549,0.0-4.0-0.0-0.22,cats,dogs,dogs,CDA21,"<p class=""fixation"">+</p>",null,test,1,"""","""","""","""","""","""","""","""","""","""","2021-03-16 19:09:39",68.104.142.91,"Mozilla/5.0 (Windows NT 10.0; Win64; x64) AppleWebKit/537.36 (KHTML, like Gecko) Chrome/84.0.4147.105 Safari/537.36 Edg/84.0.522.52",WebKit,Edge,84.0.522.52,Windows,10.0
35,1,858.3449999987497,"""",respond,html-keyboard-response,111,192412,0.0-4.0-0.0-1.22,cats,dogs,dogs,CDA21,"<img src=""img/7C_10S_yellow6.jpg"" style=""width:500px;""></img>",76,test,1,23,1,img/7C_10S_yellow6.jpg,0,0,dogs,dogs,true,true,"""","2021-03-16 19:09:39",68.104.142.91,"Mozilla/5.0 (Windows NT 10.0; Win64; x64) AppleWebKit/537.36 (KHTML, like Gecko) Chrome/84.0.4147.105 Safari/537.36 Edg/84.0.522.52",WebKit,Edge,84.0.522.52,Windows,10.0
35,1,null,"""",reward-feedback,audio-keyboard-response,112,193915,0.0-4.0-0.0-3.22-0.22,cats,dogs,dogs,CDA21,mp3/reward-coin-drop.mp3,null,test,1,"""","""","""","""","""","""","""","""","""","""","2021-03-16 19:09:39",68.104.142.91,"Mozilla/5.0 (Windows NT 10.0; Win64; x64) AppleWebKit/537.36 (KHTML, like Gecko) Chrome/84.0.4147.105 Safari/537.36 Edg/84.0.522.52",WebKit,Edge,84.0.522.52,Windows,10.0
35,1,null,"""","""",html-keyboard-response,113,194418,0.0-4.0-0.0-0.23,cats,dogs,dogs,CDA21,"<p class=""fixation"">+</p>",null,test,1,"""","""","""","""","""","""","""","""","""","""","2021-03-16 19:09:39",68.104.142.91,"Mozilla/5.0 (Windows NT 10.0; Win64; x64) AppleWebKit/537.36 (KHTML, like Gecko) Chrome/84.0.4147.105 Safari/537.36 Edg/84.0.522.52",WebKit,Edge,84.0.522.52,Windows,10.0
35,1,729.6449999994365,"""",respond,html-keyboard-response,114,195154,0.0-4.0-0.0-1.23,cats,dogs,dogs,CDA21,"<img src=""img/7S_10C_yellow8.jpg"" style=""width:500px;""></img>",83,test,1,24,1,img/7S_10C_yellow8.jpg,0,0,cats,cats,true,true,"""","2021-03-16 19:09:39",68.104.142.91,"Mozilla/5.0 (Windows NT 10.0; Win64; x64) AppleWebKit/537.36 (KHTML, like Gecko) Chrome/84.0.4147.105 Safari/537.36 Edg/84.0.522.52",WebKit,Edge,84.0.522.52,Windows,10.0
35,1,null,"""",reward-feedback,audio-keyboard-response,115,196658,0.0-4.0-0.0-3.23-0.23,cats,dogs,dogs,CDA21,mp3/reward-coin-drop.mp3,null,test,1,"""","""","""","""","""","""","""","""","""","""","2021-03-16 19:09:39",68.104.142.91,"Mozilla/5.0 (Windows NT 10.0; Win64; x64) AppleWebKit/537.36 (KHTML, like Gecko) Chrome/84.0.4147.105 Safari/537.36 Edg/84.0.522.52",WebKit,Edge,84.0.522.52,Windows,10.0
35,1,null,"""","""",html-keyboard-response,116,197161,0.0-4.0-0.0-0.24,cats,dogs,dogs,CDA21,"<p class=""fixation"">+</p>",null,test,1,"""","""","""","""","""","""","""","""","""","""","2021-03-16 19:09:39",68.104.142.91,"Mozilla/5.0 (Windows NT 10.0; Win64; x64) AppleWebKit/537.36 (KHTML, like Gecko) Chrome/84.0.4147.105 Safari/537.36 Edg/84.0.522.52",WebKit,Edge,84.0.522.52,Windows,10.0
35,1,717.1199999993551,"""",respond,html-keyboard-response,117,197884,0.0-4.0-0.0-1.24,cats,dogs,dogs,CDA21,"<img src=""img/7C_10S_yellow6.jpg"" style=""width:500px;""></img>",76,test,1,25,0,img/7C_10S_yellow6.jpg,0,0,dogs,dogs,true,false,"""","2021-03-16 19:09:39",68.104.142.91,"Mozilla/5.0 (Windows NT 10.0; Win64; x64) AppleWebKit/537.36 (KHTML, like Gecko) Chrome/84.0.4147.105 Safari/537.36 Edg/84.0.522.52",WebKit,Edge,84.0.522.52,Windows,10.0
35,1,null,"""","""",html-keyboard-response,118,199385,0.0-4.0-0.0-4.24-0.24,cats,dogs,dogs,CDA21,"
      <div style=""position: absolute; top: 2vh; left: 2vw;"">
        <img src=""img/yellow_circle.jpeg"" style=""width:100px;""></img>
        <p>S = cats</p>
      </div>
      <div style=""position: absolute; top: 2vh; right: 2vw;"">
        <img src=""img/yellow_square.jpeg"" style=""width:100px;""></img>
        <p>L = dogs</p>
      </div>",null,test,1,"""","""","""","""","""","""","""","""","""","""","2021-03-16 19:09:39",68.104.142.91,"Mozilla/5.0 (Windows NT 10.0; Win64; x64) AppleWebKit/537.36 (KHTML, like Gecko) Chrome/84.0.4147.105 Safari/537.36 Edg/84.0.522.52",WebKit,Edge,84.0.522.52,Windows,10.0
35,1,null,"""","""",html-keyboard-response,119,199888,0.0-4.0-0.0-0.25,cats,dogs,dogs,CDA21,"<p class=""fixation"">+</p>",null,test,1,"""","""","""","""","""","""","""","""","""","""","2021-03-16 19:09:39",68.104.142.91,"Mozilla/5.0 (Windows NT 10.0; Win64; x64) AppleWebKit/537.36 (KHTML, like Gecko) Chrome/84.0.4147.105 Safari/537.36 Edg/84.0.522.52",WebKit,Edge,84.0.522.52,Windows,10.0
35,1,1105.1000000006752,"""",respond,html-keyboard-response,120,200998,0.0-4.0-0.0-1.25,cats,dogs,dogs,CDA21,"<img src=""img/7C_10S_yellow5.jpg"" style=""width:500px;""></img>",83,test,1,26,1,img/7C_10S_yellow5.jpg,0,0,dogs,cats,false,false,"""","2021-03-16 19:09:39",68.104.142.91,"Mozilla/5.0 (Windows NT 10.0; Win64; x64) AppleWebKit/537.36 (KHTML, like Gecko) Chrome/84.0.4147.105 Safari/537.36 Edg/84.0.522.52",WebKit,Edge,84.0.522.52,Windows,10.0
35,1,null,"""","""",html-keyboard-response,121,202500,0.0-4.0-0.0-4.25-0.25,cats,dogs,dogs,CDA21,"
      <div style=""position: absolute; top: 2vh; left: 2vw;"">
        <img src=""img/yellow_circle.jpeg"" style=""width:100px;""></img>
        <p>S = cats</p>
      </div>
      <div style=""position: absolute; top: 2vh; right: 2vw;"">
        <img src=""img/yellow_square.jpeg"" style=""width:100px;""></img>
        <p>L = dogs</p>
      </div>",null,test,1,"""","""","""","""","""","""","""","""","""","""","2021-03-16 19:09:39",68.104.142.91,"Mozilla/5.0 (Windows NT 10.0; Win64; x64) AppleWebKit/537.36 (KHTML, like Gecko) Chrome/84.0.4147.105 Safari/537.36 Edg/84.0.522.52",WebKit,Edge,84.0.522.52,Windows,10.0
35,1,null,"""","""",html-keyboard-response,122,203003,0.0-4.0-0.0-0.26,cats,dogs,dogs,CDA21,"<p class=""fixation"">+</p>",null,test,1,"""","""","""","""","""","""","""","""","""","""","2021-03-16 19:09:39",68.104.142.91,"Mozilla/5.0 (Windows NT 10.0; Win64; x64) AppleWebKit/537.36 (KHTML, like Gecko) Chrome/84.0.4147.105 Safari/537.36 Edg/84.0.522.52",WebKit,Edge,84.0.522.52,Windows,10.0
35,1,779.4549999998417,"""",respond,html-keyboard-response,123,203790,0.0-4.0-0.0-1.26,cats,dogs,dogs,CDA21,"<img src=""img/7C_10S_yellow5.jpg"" style=""width:500px;""></img>",76,test,1,27,1,img/7C_10S_yellow5.jpg,0,1,dogs,dogs,true,true,"""","2021-03-16 19:09:39",68.104.142.91,"Mozilla/5.0 (Windows NT 10.0; Win64; x64) AppleWebKit/537.36 (KHTML, like Gecko) Chrome/84.0.4147.105 Safari/537.36 Edg/84.0.522.52",WebKit,Edge,84.0.522.52,Windows,10.0
35,1,null,"""",reward-feedback,audio-keyboard-response,124,205294,0.0-4.0-0.0-3.26-0.26,cats,dogs,dogs,CDA21,mp3/reward-coin-drop.mp3,null,test,1,"""","""","""","""","""","""","""","""","""","""","2021-03-16 19:09:39",68.104.142.91,"Mozilla/5.0 (Windows NT 10.0; Win64; x64) AppleWebKit/537.36 (KHTML, like Gecko) Chrome/84.0.4147.105 Safari/537.36 Edg/84.0.522.52",WebKit,Edge,84.0.522.52,Windows,10.0
35,1,null,"""","""",html-keyboard-response,125,205796,0.0-4.0-0.0-0.27,cats,dogs,dogs,CDA21,"<p class=""fixation"">+</p>",null,test,1,"""","""","""","""","""","""","""","""","""","""","2021-03-16 19:09:39",68.104.142.91,"Mozilla/5.0 (Windows NT 10.0; Win64; x64) AppleWebKit/537.36 (KHTML, like Gecko) Chrome/84.0.4147.105 Safari/537.36 Edg/84.0.522.52",WebKit,Edge,84.0.522.52,Windows,10.0
35,1,1002.4599999996717,"""",respond,html-keyboard-response,126,206803,0.0-4.0-0.0-1.27,cats,dogs,dogs,CDA21,"<img src=""img/7S_10C_yellow9.jpg"" style=""width:500px;""></img>",76,test,1,28,0,img/7S_10C_yellow9.jpg,0,1,cats,dogs,false,false,"""","2021-03-16 19:09:39",68.104.142.91,"Mozilla/5.0 (Windows NT 10.0; Win64; x64) AppleWebKit/537.36 (KHTML, like Gecko) Chrome/84.0.4147.105 Safari/537.36 Edg/84.0.522.52",WebKit,Edge,84.0.522.52,Windows,10.0
35,1,null,"""","""",html-keyboard-response,127,208306,0.0-4.0-0.0-4.27-0.27,cats,dogs,dogs,CDA21,"
      <div style=""position: absolute; top: 2vh; left: 2vw;"">
        <img src=""img/yellow_circle.jpeg"" style=""width:100px;""></img>
        <p>S = cats</p>
      </div>
      <div style=""position: absolute; top: 2vh; right: 2vw;"">
        <img src=""img/yellow_square.jpeg"" style=""width:100px;""></img>
        <p>L = dogs</p>
      </div>",null,test,1,"""","""","""","""","""","""","""","""","""","""","2021-03-16 19:09:39",68.104.142.91,"Mozilla/5.0 (Windows NT 10.0; Win64; x64) AppleWebKit/537.36 (KHTML, like Gecko) Chrome/84.0.4147.105 Safari/537.36 Edg/84.0.522.52",WebKit,Edge,84.0.522.52,Windows,10.0
35,1,null,"""","""",html-keyboard-response,128,208808,0.0-4.0-0.0-0.28,cats,dogs,dogs,CDA21,"<p class=""fixation"">+</p>",null,test,1,"""","""","""","""","""","""","""","""","""","""","2021-03-16 19:09:39",68.104.142.91,"Mozilla/5.0 (Windows NT 10.0; Win64; x64) AppleWebKit/537.36 (KHTML, like Gecko) Chrome/84.0.4147.105 Safari/537.36 Edg/84.0.522.52",WebKit,Edge,84.0.522.52,Windows,10.0
35,1,763.25499999983,"""",respond,html-keyboard-response,129,209576,0.0-4.0-0.0-1.28,cats,dogs,dogs,CDA21,"<img src=""img/7C_10S_yellow4.jpg"" style=""width:500px;""></img>",76,test,1,29,0,img/7C_10S_yellow4.jpg,0,1,dogs,dogs,true,false,"""","2021-03-16 19:09:39",68.104.142.91,"Mozilla/5.0 (Windows NT 10.0; Win64; x64) AppleWebKit/537.36 (KHTML, like Gecko) Chrome/84.0.4147.105 Safari/537.36 Edg/84.0.522.52",WebKit,Edge,84.0.522.52,Windows,10.0
35,1,null,"""","""",html-keyboard-response,130,211078,0.0-4.0-0.0-4.28-0.28,cats,dogs,dogs,CDA21,"
      <div style=""position: absolute; top: 2vh; left: 2vw;"">
        <img src=""img/yellow_circle.jpeg"" style=""width:100px;""></img>
        <p>S = cats</p>
      </div>
      <div style=""position: absolute; top: 2vh; right: 2vw;"">
        <img src=""img/yellow_square.jpeg"" style=""width:100px;""></img>
        <p>L = dogs</p>
      </div>",null,test,1,"""","""","""","""","""","""","""","""","""","""","2021-03-16 19:09:39",68.104.142.91,"Mozilla/5.0 (Windows NT 10.0; Win64; x64) AppleWebKit/537.36 (KHTML, like Gecko) Chrome/84.0.4147.105 Safari/537.36 Edg/84.0.522.52",WebKit,Edge,84.0.522.52,Windows,10.0
35,1,null,"""","""",html-keyboard-response,131,211581,0.0-4.0-0.0-0.29,cats,dogs,dogs,CDA21,"<p class=""fixation"">+</p>",null,test,1,"""","""","""","""","""","""","""","""","""","""","2021-03-16 19:09:39",68.104.142.91,"Mozilla/5.0 (Windows NT 10.0; Win64; x64) AppleWebKit/537.36 (KHTML, like Gecko) Chrome/84.0.4147.105 Safari/537.36 Edg/84.0.522.52",WebKit,Edge,84.0.522.52,Windows,10.0
35,1,1077.4300000011863,"""",respond,html-keyboard-response,132,212663,0.0-4.0-0.0-1.29,cats,dogs,dogs,CDA21,"<img src=""img/7S_10C_yellow7.jpg"" style=""width:500px;""></img>",83,test,1,30,0,img/7S_10C_yellow7.jpg,0,0,cats,cats,true,false,"""","2021-03-16 19:09:39",68.104.142.91,"Mozilla/5.0 (Windows NT 10.0; Win64; x64) AppleWebKit/537.36 (KHTML, like Gecko) Chrome/84.0.4147.105 Safari/537.36 Edg/84.0.522.52",WebKit,Edge,84.0.522.52,Windows,10.0
35,1,null,"""","""",html-keyboard-response,133,214165,0.0-4.0-0.0-4.29-0.29,cats,dogs,dogs,CDA21,"
      <div style=""position: absolute; top: 2vh; left: 2vw;"">
        <img src=""img/yellow_circle.jpeg"" style=""width:100px;""></img>
        <p>S = cats</p>
      </div>
      <div style=""position: absolute; top: 2vh; right: 2vw;"">
        <img src=""img/yellow_square.jpeg"" style=""width:100px;""></img>
        <p>L = dogs</p>
      </div>",null,test,1,"""","""","""","""","""","""","""","""","""","""","2021-03-16 19:09:39",68.104.142.91,"Mozilla/5.0 (Windows NT 10.0; Win64; x64) AppleWebKit/537.36 (KHTML, like Gecko) Chrome/84.0.4147.105 Safari/537.36 Edg/84.0.522.52",WebKit,Edge,84.0.522.52,Windows,10.0
35,1,null,"""","""",html-keyboard-response,134,214667,0.0-4.0-0.0-0.30,cats,dogs,dogs,CDA21,"<p class=""fixation"">+</p>",null,test,1,"""","""","""","""","""","""","""","""","""","""","2021-03-16 19:09:39",68.104.142.91,"Mozilla/5.0 (Windows NT 10.0; Win64; x64) AppleWebKit/537.36 (KHTML, like Gecko) Chrome/84.0.4147.105 Safari/537.36 Edg/84.0.522.52",WebKit,Edge,84.0.522.52,Windows,10.0
35,1,664.3550000007963,"""",respond,html-keyboard-response,135,215339,0.0-4.0-0.0-1.30,cats,dogs,dogs,CDA21,"<img src=""img/7S_10C_yellow6.jpg"" style=""width:500px;""></img>",83,test,1,31,0,img/7S_10C_yellow6.jpg,0,0,cats,cats,true,false,"""","2021-03-16 19:09:39",68.104.142.91,"Mozilla/5.0 (Windows NT 10.0; Win64; x64) AppleWebKit/537.36 (KHTML, like Gecko) Chrome/84.0.4147.105 Safari/537.36 Edg/84.0.522.52",WebKit,Edge,84.0.522.52,Windows,10.0
35,1,null,"""","""",html-keyboard-response,136,216841,0.0-4.0-0.0-4.30-0.30,cats,dogs,dogs,CDA21,"
      <div style=""position: absolute; top: 2vh; left: 2vw;"">
        <img src=""img/yellow_circle.jpeg"" style=""width:100px;""></img>
        <p>S = cats</p>
      </div>
      <div style=""position: absolute; top: 2vh; right: 2vw;"">
        <img src=""img/yellow_square.jpeg"" style=""width:100px;""></img>
        <p>L = dogs</p>
      </div>",null,test,1,"""","""","""","""","""","""","""","""","""","""","2021-03-16 19:09:39",68.104.142.91,"Mozilla/5.0 (Windows NT 10.0; Win64; x64) AppleWebKit/537.36 (KHTML, like Gecko) Chrome/84.0.4147.105 Safari/537.36 Edg/84.0.522.52",WebKit,Edge,84.0.522.52,Windows,10.0
35,1,null,"""","""",html-keyboard-response,137,217356,0.0-4.0-0.0-0.31,cats,dogs,dogs,CDA21,"<p class=""fixation"">+</p>",null,test,1,"""","""","""","""","""","""","""","""","""","""","2021-03-16 19:09:39",68.104.142.91,"Mozilla/5.0 (Windows NT 10.0; Win64; x64) AppleWebKit/537.36 (KHTML, like Gecko) Chrome/84.0.4147.105 Safari/537.36 Edg/84.0.522.52",WebKit,Edge,84.0.522.52,Windows,10.0
35,1,604.510000001057,"""",respond,html-keyboard-response,138,217962,0.0-4.0-0.0-1.31,cats,dogs,dogs,CDA21,"<img src=""img/7S_10C_yellow8.jpg"" style=""width:500px;""></img>",83,test,1,32,0,img/7S_10C_yellow8.jpg,0,0,cats,cats,true,false,"""","2021-03-16 19:09:39",68.104.142.91,"Mozilla/5.0 (Windows NT 10.0; Win64; x64) AppleWebKit/537.36 (KHTML, like Gecko) Chrome/84.0.4147.105 Safari/537.36 Edg/84.0.522.52",WebKit,Edge,84.0.522.52,Windows,10.0
35,1,null,"""","""",html-keyboard-response,139,219469,0.0-4.0-0.0-4.31-0.31,cats,dogs,dogs,CDA21,"
      <div style=""position: absolute; top: 2vh; left: 2vw;"">
        <img src=""img/yellow_circle.jpeg"" style=""width:100px;""></img>
        <p>S = cats</p>
      </div>
      <div style=""position: absolute; top: 2vh; right: 2vw;"">
        <img src=""img/yellow_square.jpeg"" style=""width:100px;""></img>
        <p>L = dogs</p>
      </div>",null,test,1,"""","""","""","""","""","""","""","""","""","""","2021-03-16 19:09:39",68.104.142.91,"Mozilla/5.0 (Windows NT 10.0; Win64; x64) AppleWebKit/537.36 (KHTML, like Gecko) Chrome/84.0.4147.105 Safari/537.36 Edg/84.0.522.52",WebKit,Edge,84.0.522.52,Windows,10.0
35,1,null,"""","""",html-keyboard-response,140,219984,0.0-4.0-0.0-0.32,cats,dogs,dogs,CDA21,"<p class=""fixation"">+</p>",null,test,1,"""","""","""","""","""","""","""","""","""","""","2021-03-16 19:09:39",68.104.142.91,"Mozilla/5.0 (Windows NT 10.0; Win64; x64) AppleWebKit/537.36 (KHTML, like Gecko) Chrome/84.0.4147.105 Safari/537.36 Edg/84.0.522.52",WebKit,Edge,84.0.522.52,Windows,10.0
35,1,918.3300000004238,"""",respond,html-keyboard-response,141,220904,0.0-4.0-0.0-1.32,cats,dogs,dogs,CDA21,"<img src=""img/7C_10S_yellow5.jpg"" style=""width:500px;""></img>",76,test,1,33,0,img/7C_10S_yellow5.jpg,0,0,dogs,dogs,true,false,"""","2021-03-16 19:09:39",68.104.142.91,"Mozilla/5.0 (Windows NT 10.0; Win64; x64) AppleWebKit/537.36 (KHTML, like Gecko) Chrome/84.0.4147.105 Safari/537.36 Edg/84.0.522.52",WebKit,Edge,84.0.522.52,Windows,10.0
35,1,null,"""","""",html-keyboard-response,142,222411,0.0-4.0-0.0-4.32-0.32,cats,dogs,dogs,CDA21,"
      <div style=""position: absolute; top: 2vh; left: 2vw;"">
        <img src=""img/yellow_circle.jpeg"" style=""width:100px;""></img>
        <p>S = cats</p>
      </div>
      <div style=""position: absolute; top: 2vh; right: 2vw;"">
        <img src=""img/yellow_square.jpeg"" style=""width:100px;""></img>
        <p>L = dogs</p>
      </div>",null,test,1,"""","""","""","""","""","""","""","""","""","""","2021-03-16 19:09:39",68.104.142.91,"Mozilla/5.0 (Windows NT 10.0; Win64; x64) AppleWebKit/537.36 (KHTML, like Gecko) Chrome/84.0.4147.105 Safari/537.36 Edg/84.0.522.52",WebKit,Edge,84.0.522.52,Windows,10.0
35,1,null,"""","""",html-keyboard-response,143,222928,0.0-4.0-0.0-0.33,cats,dogs,dogs,CDA21,"<p class=""fixation"">+</p>",null,test,1,"""","""","""","""","""","""","""","""","""","""","2021-03-16 19:09:39",68.104.142.91,"Mozilla/5.0 (Windows NT 10.0; Win64; x64) AppleWebKit/537.36 (KHTML, like Gecko) Chrome/84.0.4147.105 Safari/537.36 Edg/84.0.522.52",WebKit,Edge,84.0.522.52,Windows,10.0
35,1,685.4800000000978,"""",respond,html-keyboard-response,144,223615,0.0-4.0-0.0-1.33,cats,dogs,dogs,CDA21,"<img src=""img/7C_10S_yellow5.jpg"" style=""width:500px;""></img>",76,test,1,34,1,img/7C_10S_yellow5.jpg,0,0,dogs,dogs,true,true,"""","2021-03-16 19:09:39",68.104.142.91,"Mozilla/5.0 (Windows NT 10.0; Win64; x64) AppleWebKit/537.36 (KHTML, like Gecko) Chrome/84.0.4147.105 Safari/537.36 Edg/84.0.522.52",WebKit,Edge,84.0.522.52,Windows,10.0
35,1,null,"""",reward-feedback,audio-keyboard-response,145,225118,0.0-4.0-0.0-3.33-0.33,cats,dogs,dogs,CDA21,mp3/reward-coin-drop.mp3,null,test,1,"""","""","""","""","""","""","""","""","""","""","2021-03-16 19:09:39",68.104.142.91,"Mozilla/5.0 (Windows NT 10.0; Win64; x64) AppleWebKit/537.36 (KHTML, like Gecko) Chrome/84.0.4147.105 Safari/537.36 Edg/84.0.522.52",WebKit,Edge,84.0.522.52,Windows,10.0
35,1,null,"""","""",html-keyboard-response,146,225623,0.0-4.0-0.0-0.34,cats,dogs,dogs,CDA21,"<p class=""fixation"">+</p>",null,test,1,"""","""","""","""","""","""","""","""","""","""","2021-03-16 19:09:39",68.104.142.91,"Mozilla/5.0 (Windows NT 10.0; Win64; x64) AppleWebKit/537.36 (KHTML, like Gecko) Chrome/84.0.4147.105 Safari/537.36 Edg/84.0.522.52",WebKit,Edge,84.0.522.52,Windows,10.0
35,1,831.6049999993993,"""",respond,html-keyboard-response,147,226456,0.0-4.0-0.0-1.34,cats,dogs,dogs,CDA21,"<img src=""img/7S_10C_yellow10.jpg"" style=""width:500px;""></img>",83,test,1,35,0,img/7S_10C_yellow10.jpg,0,0,cats,cats,true,false,"""","2021-03-16 19:09:39",68.104.142.91,"Mozilla/5.0 (Windows NT 10.0; Win64; x64) AppleWebKit/537.36 (KHTML, like Gecko) Chrome/84.0.4147.105 Safari/537.36 Edg/84.0.522.52",WebKit,Edge,84.0.522.52,Windows,10.0
35,1,null,"""","""",html-keyboard-response,148,227958,0.0-4.0-0.0-4.34-0.34,cats,dogs,dogs,CDA21,"
      <div style=""position: absolute; top: 2vh; left: 2vw;"">
        <img src=""img/yellow_circle.jpeg"" style=""width:100px;""></img>
        <p>S = cats</p>
      </div>
      <div style=""position: absolute; top: 2vh; right: 2vw;"">
        <img src=""img/yellow_square.jpeg"" style=""width:100px;""></img>
        <p>L = dogs</p>
      </div>",null,test,1,"""","""","""","""","""","""","""","""","""","""","2021-03-16 19:09:39",68.104.142.91,"Mozilla/5.0 (Windows NT 10.0; Win64; x64) AppleWebKit/537.36 (KHTML, like Gecko) Chrome/84.0.4147.105 Safari/537.36 Edg/84.0.522.52",WebKit,Edge,84.0.522.52,Windows,10.0
35,1,null,"""","""",html-keyboard-response,149,228463,0.0-4.0-0.0-0.35,cats,dogs,dogs,CDA21,"<p class=""fixation"">+</p>",null,test,1,"""","""","""","""","""","""","""","""","""","""","2021-03-16 19:09:39",68.104.142.91,"Mozilla/5.0 (Windows NT 10.0; Win64; x64) AppleWebKit/537.36 (KHTML, like Gecko) Chrome/84.0.4147.105 Safari/537.36 Edg/84.0.522.52",WebKit,Edge,84.0.522.52,Windows,10.0
35,1,1133.5149999995192,"""",respond,html-keyboard-response,150,229599,0.0-4.0-0.0-1.35,cats,dogs,dogs,CDA21,"<img src=""img/7S_10C_yellow9.jpg"" style=""width:500px;""></img>",83,test,1,36,1,img/7S_10C_yellow9.jpg,0,0,cats,cats,true,true,"""","2021-03-16 19:09:39",68.104.142.91,"Mozilla/5.0 (Windows NT 10.0; Win64; x64) AppleWebKit/537.36 (KHTML, like Gecko) Chrome/84.0.4147.105 Safari/537.36 Edg/84.0.522.52",WebKit,Edge,84.0.522.52,Windows,10.0
35,1,null,"""",reward-feedback,audio-keyboard-response,151,231103,0.0-4.0-0.0-3.35-0.35,cats,dogs,dogs,CDA21,mp3/reward-coin-drop.mp3,null,test,1,"""","""","""","""","""","""","""","""","""","""","2021-03-16 19:09:39",68.104.142.91,"Mozilla/5.0 (Windows NT 10.0; Win64; x64) AppleWebKit/537.36 (KHTML, like Gecko) Chrome/84.0.4147.105 Safari/537.36 Edg/84.0.522.52",WebKit,Edge,84.0.522.52,Windows,10.0
35,1,null,"""","""",html-keyboard-response,152,231612,0.0-4.0-0.0-0.36,cats,dogs,dogs,CDA21,"<p class=""fixation"">+</p>",null,test,1,"""","""","""","""","""","""","""","""","""","""","2021-03-16 19:09:39",68.104.142.91,"Mozilla/5.0 (Windows NT 10.0; Win64; x64) AppleWebKit/537.36 (KHTML, like Gecko) Chrome/84.0.4147.105 Safari/537.36 Edg/84.0.522.52",WebKit,Edge,84.0.522.52,Windows,10.0
35,1,953.8850000008242,"""",respond,html-keyboard-response,153,232567,0.0-4.0-0.0-1.36,cats,dogs,dogs,CDA21,"<img src=""img/7C_10S_yellow5.jpg"" style=""width:500px;""></img>",76,test,1,37,1,img/7C_10S_yellow5.jpg,0,0,dogs,dogs,true,true,"""","2021-03-16 19:09:39",68.104.142.91,"Mozilla/5.0 (Windows NT 10.0; Win64; x64) AppleWebKit/537.36 (KHTML, like Gecko) Chrome/84.0.4147.105 Safari/537.36 Edg/84.0.522.52",WebKit,Edge,84.0.522.52,Windows,10.0
35,1,null,"""",reward-feedback,audio-keyboard-response,154,234070,0.0-4.0-0.0-3.36-0.36,cats,dogs,dogs,CDA21,mp3/reward-coin-drop.mp3,null,test,1,"""","""","""","""","""","""","""","""","""","""","2021-03-16 19:09:39",68.104.142.91,"Mozilla/5.0 (Windows NT 10.0; Win64; x64) AppleWebKit/537.36 (KHTML, like Gecko) Chrome/84.0.4147.105 Safari/537.36 Edg/84.0.522.52",WebKit,Edge,84.0.522.52,Windows,10.0
35,1,null,"""","""",html-keyboard-response,155,234575,0.0-4.0-0.0-0.37,cats,dogs,dogs,CDA21,"<p class=""fixation"">+</p>",null,test,1,"""","""","""","""","""","""","""","""","""","""","2021-03-16 19:09:39",68.104.142.91,"Mozilla/5.0 (Windows NT 10.0; Win64; x64) AppleWebKit/537.36 (KHTML, like Gecko) Chrome/84.0.4147.105 Safari/537.36 Edg/84.0.522.52",WebKit,Edge,84.0.522.52,Windows,10.0
35,1,796.6850000011618,"""",respond,html-keyboard-response,156,235374,0.0-4.0-0.0-1.37,cats,dogs,dogs,CDA21,"<img src=""img/7C_10S_yellow6.jpg"" style=""width:500px;""></img>",76,test,1,38,0,img/7C_10S_yellow6.jpg,0,0,dogs,dogs,true,false,"""","2021-03-16 19:09:39",68.104.142.91,"Mozilla/5.0 (Windows NT 10.0; Win64; x64) AppleWebKit/537.36 (KHTML, like Gecko) Chrome/84.0.4147.105 Safari/537.36 Edg/84.0.522.52",WebKit,Edge,84.0.522.52,Windows,10.0
35,1,null,"""","""",html-keyboard-response,157,236876,0.0-4.0-0.0-4.37-0.37,cats,dogs,dogs,CDA21,"
      <div style=""position: absolute; top: 2vh; left: 2vw;"">
        <img src=""img/yellow_circle.jpeg"" style=""width:100px;""></img>
        <p>S = cats</p>
      </div>
      <div style=""position: absolute; top: 2vh; right: 2vw;"">
        <img src=""img/yellow_square.jpeg"" style=""width:100px;""></img>
        <p>L = dogs</p>
      </div>",null,test,1,"""","""","""","""","""","""","""","""","""","""","2021-03-16 19:09:39",68.104.142.91,"Mozilla/5.0 (Windows NT 10.0; Win64; x64) AppleWebKit/537.36 (KHTML, like Gecko) Chrome/84.0.4147.105 Safari/537.36 Edg/84.0.522.52",WebKit,Edge,84.0.522.52,Windows,10.0
35,1,null,"""","""",html-keyboard-response,158,237384,0.0-4.0-0.0-0.38,cats,dogs,dogs,CDA21,"<p class=""fixation"">+</p>",null,test,1,"""","""","""","""","""","""","""","""","""","""","2021-03-16 19:09:39",68.104.142.91,"Mozilla/5.0 (Windows NT 10.0; Win64; x64) AppleWebKit/537.36 (KHTML, like Gecko) Chrome/84.0.4147.105 Safari/537.36 Edg/84.0.522.52",WebKit,Edge,84.0.522.52,Windows,10.0
35,1,607.3250000008848,"""",respond,html-keyboard-response,159,237993,0.0-4.0-0.0-1.38,cats,dogs,dogs,CDA21,"<img src=""img/7C_10S_yellow3.jpg"" style=""width:500px;""></img>",76,test,1,39,0,img/7C_10S_yellow3.jpg,0,0,dogs,dogs,true,false,"""","2021-03-16 19:09:39",68.104.142.91,"Mozilla/5.0 (Windows NT 10.0; Win64; x64) AppleWebKit/537.36 (KHTML, like Gecko) Chrome/84.0.4147.105 Safari/537.36 Edg/84.0.522.52",WebKit,Edge,84.0.522.52,Windows,10.0
35,1,null,"""","""",html-keyboard-response,160,239496,0.0-4.0-0.0-4.38-0.38,cats,dogs,dogs,CDA21,"
      <div style=""position: absolute; top: 2vh; left: 2vw;"">
        <img src=""img/yellow_circle.jpeg"" style=""width:100px;""></img>
        <p>S = cats</p>
      </div>
      <div style=""position: absolute; top: 2vh; right: 2vw;"">
        <img src=""img/yellow_square.jpeg"" style=""width:100px;""></img>
        <p>L = dogs</p>
      </div>",null,test,1,"""","""","""","""","""","""","""","""","""","""","2021-03-16 19:09:39",68.104.142.91,"Mozilla/5.0 (Windows NT 10.0; Win64; x64) AppleWebKit/537.36 (KHTML, like Gecko) Chrome/84.0.4147.105 Safari/537.36 Edg/84.0.522.52",WebKit,Edge,84.0.522.52,Windows,10.0
35,1,null,"""","""",html-keyboard-response,161,239999,0.0-4.0-0.0-0.39,cats,dogs,dogs,CDA21,"<p class=""fixation"">+</p>",null,test,1,"""","""","""","""","""","""","""","""","""","""","2021-03-16 19:09:39",68.104.142.91,"Mozilla/5.0 (Windows NT 10.0; Win64; x64) AppleWebKit/537.36 (KHTML, like Gecko) Chrome/84.0.4147.105 Safari/537.36 Edg/84.0.522.52",WebKit,Edge,84.0.522.52,Windows,10.0
35,1,782.1899999998859,"""",respond,html-keyboard-response,162,240787,0.0-4.0-0.0-1.39,cats,dogs,dogs,CDA21,"<img src=""img/7S_10C_yellow7.jpg"" style=""width:500px;""></img>",83,test,1,40,0,img/7S_10C_yellow7.jpg,0,0,cats,cats,true,false,"""","2021-03-16 19:09:39",68.104.142.91,"Mozilla/5.0 (Windows NT 10.0; Win64; x64) AppleWebKit/537.36 (KHTML, like Gecko) Chrome/84.0.4147.105 Safari/537.36 Edg/84.0.522.52",WebKit,Edge,84.0.522.52,Windows,10.0
35,1,null,"""","""",html-keyboard-response,163,242289,0.0-4.0-0.0-4.39-0.39,cats,dogs,dogs,CDA21,"
      <div style=""position: absolute; top: 2vh; left: 2vw;"">
        <img src=""img/yellow_circle.jpeg"" style=""width:100px;""></img>
        <p>S = cats</p>
      </div>
      <div style=""position: absolute; top: 2vh; right: 2vw;"">
        <img src=""img/yellow_square.jpeg"" style=""width:100px;""></img>
        <p>L = dogs</p>
      </div>",null,test,1,"""","""","""","""","""","""","""","""","""","""","2021-03-16 19:09:39",68.104.142.91,"Mozilla/5.0 (Windows NT 10.0; Win64; x64) AppleWebKit/537.36 (KHTML, like Gecko) Chrome/84.0.4147.105 Safari/537.36 Edg/84.0.522.52",WebKit,Edge,84.0.522.52,Windows,10.0
35,1,null,"""","""",html-keyboard-response,164,242791,0.0-4.0-0.0-0.40,cats,dogs,dogs,CDA21,"<p class=""fixation"">+</p>",null,test,1,"""","""","""","""","""","""","""","""","""","""","2021-03-16 19:09:39",68.104.142.91,"Mozilla/5.0 (Windows NT 10.0; Win64; x64) AppleWebKit/537.36 (KHTML, like Gecko) Chrome/84.0.4147.105 Safari/537.36 Edg/84.0.522.52",WebKit,Edge,84.0.522.52,Windows,10.0
35,1,714.5049999999464,"""",respond,html-keyboard-response,165,243514,0.0-4.0-0.0-1.40,cats,dogs,dogs,CDA21,"<img src=""img/7S_10C_yellow8.jpg"" style=""width:500px;""></img>",83,test,1,41,1,img/7S_10C_yellow8.jpg,0,0,cats,cats,true,true,"""","2021-03-16 19:09:39",68.104.142.91,"Mozilla/5.0 (Windows NT 10.0; Win64; x64) AppleWebKit/537.36 (KHTML, like Gecko) Chrome/84.0.4147.105 Safari/537.36 Edg/84.0.522.52",WebKit,Edge,84.0.522.52,Windows,10.0
35,1,null,"""",reward-feedback,audio-keyboard-response,166,245018,0.0-4.0-0.0-3.40-0.40,cats,dogs,dogs,CDA21,mp3/reward-coin-drop.mp3,null,test,1,"""","""","""","""","""","""","""","""","""","""","2021-03-16 19:09:39",68.104.142.91,"Mozilla/5.0 (Windows NT 10.0; Win64; x64) AppleWebKit/537.36 (KHTML, like Gecko) Chrome/84.0.4147.105 Safari/537.36 Edg/84.0.522.52",WebKit,Edge,84.0.522.52,Windows,10.0
35,1,null,"""","""",html-keyboard-response,167,245521,0.0-4.0-0.0-0.41,cats,dogs,dogs,CDA21,"<p class=""fixation"">+</p>",null,test,1,"""","""","""","""","""","""","""","""","""","""","2021-03-16 19:09:39",68.104.142.91,"Mozilla/5.0 (Windows NT 10.0; Win64; x64) AppleWebKit/537.36 (KHTML, like Gecko) Chrome/84.0.4147.105 Safari/537.36 Edg/84.0.522.52",WebKit,Edge,84.0.522.52,Windows,10.0
35,1,652.404999998922,"""",respond,html-keyboard-response,168,246179,0.0-4.0-0.0-1.41,cats,dogs,dogs,CDA21,"<img src=""img/7S_10C_yellow6.jpg"" style=""width:500px;""></img>",83,test,1,42,0,img/7S_10C_yellow6.jpg,0,0,cats,cats,true,false,"""","2021-03-16 19:09:39",68.104.142.91,"Mozilla/5.0 (Windows NT 10.0; Win64; x64) AppleWebKit/537.36 (KHTML, like Gecko) Chrome/84.0.4147.105 Safari/537.36 Edg/84.0.522.52",WebKit,Edge,84.0.522.52,Windows,10.0
35,1,null,"""","""",html-keyboard-response,169,247681,0.0-4.0-0.0-4.41-0.41,cats,dogs,dogs,CDA21,"
      <div style=""position: absolute; top: 2vh; left: 2vw;"">
        <img src=""img/yellow_circle.jpeg"" style=""width:100px;""></img>
        <p>S = cats</p>
      </div>
      <div style=""position: absolute; top: 2vh; right: 2vw;"">
        <img src=""img/yellow_square.jpeg"" style=""width:100px;""></img>
        <p>L = dogs</p>
      </div>",null,test,1,"""","""","""","""","""","""","""","""","""","""","2021-03-16 19:09:39",68.104.142.91,"Mozilla/5.0 (Windows NT 10.0; Win64; x64) AppleWebKit/537.36 (KHTML, like Gecko) Chrome/84.0.4147.105 Safari/537.36 Edg/84.0.522.52",WebKit,Edge,84.0.522.52,Windows,10.0
35,1,null,"""","""",html-keyboard-response,170,248184,0.0-4.0-0.0-0.42,cats,dogs,dogs,CDA21,"<p class=""fixation"">+</p>",null,test,1,"""","""","""","""","""","""","""","""","""","""","2021-03-16 19:09:39",68.104.142.91,"Mozilla/5.0 (Windows NT 10.0; Win64; x64) AppleWebKit/537.36 (KHTML, like Gecko) Chrome/84.0.4147.105 Safari/537.36 Edg/84.0.522.52",WebKit,Edge,84.0.522.52,Windows,10.0
35,1,703.0149999991409,"""",respond,html-keyboard-response,171,248889,0.0-4.0-0.0-1.42,cats,dogs,dogs,CDA21,"<img src=""img/7C_10S_yellow6.jpg"" style=""width:500px;""></img>",76,test,1,43,0,img/7C_10S_yellow6.jpg,0,0,dogs,dogs,true,false,"""","2021-03-16 19:09:39",68.104.142.91,"Mozilla/5.0 (Windows NT 10.0; Win64; x64) AppleWebKit/537.36 (KHTML, like Gecko) Chrome/84.0.4147.105 Safari/537.36 Edg/84.0.522.52",WebKit,Edge,84.0.522.52,Windows,10.0
35,1,null,"""","""",html-keyboard-response,172,250394,0.0-4.0-0.0-4.42-0.42,cats,dogs,dogs,CDA21,"
      <div style=""position: absolute; top: 2vh; left: 2vw;"">
        <img src=""img/yellow_circle.jpeg"" style=""width:100px;""></img>
        <p>S = cats</p>
      </div>
      <div style=""position: absolute; top: 2vh; right: 2vw;"">
        <img src=""img/yellow_square.jpeg"" style=""width:100px;""></img>
        <p>L = dogs</p>
      </div>",null,test,1,"""","""","""","""","""","""","""","""","""","""","2021-03-16 19:09:39",68.104.142.91,"Mozilla/5.0 (Windows NT 10.0; Win64; x64) AppleWebKit/537.36 (KHTML, like Gecko) Chrome/84.0.4147.105 Safari/537.36 Edg/84.0.522.52",WebKit,Edge,84.0.522.52,Windows,10.0
35,1,null,"""","""",html-keyboard-response,173,250896,0.0-4.0-0.0-0.43,cats,dogs,dogs,CDA21,"<p class=""fixation"">+</p>",null,test,1,"""","""","""","""","""","""","""","""","""","""","2021-03-16 19:09:39",68.104.142.91,"Mozilla/5.0 (Windows NT 10.0; Win64; x64) AppleWebKit/537.36 (KHTML, like Gecko) Chrome/84.0.4147.105 Safari/537.36 Edg/84.0.522.52",WebKit,Edge,84.0.522.52,Windows,10.0
35,1,661.0450000007404,"""",respond,html-keyboard-response,174,251559,0.0-4.0-0.0-1.43,cats,dogs,dogs,CDA21,"<img src=""img/7C_10S_yellow3.jpg"" style=""width:500px;""></img>",76,test,1,44,1,img/7C_10S_yellow3.jpg,0,0,dogs,dogs,true,true,"""","2021-03-16 19:09:39",68.104.142.91,"Mozilla/5.0 (Windows NT 10.0; Win64; x64) AppleWebKit/537.36 (KHTML, like Gecko) Chrome/84.0.4147.105 Safari/537.36 Edg/84.0.522.52",WebKit,Edge,84.0.522.52,Windows,10.0
35,1,null,"""",reward-feedback,audio-keyboard-response,175,253063,0.0-4.0-0.0-3.43-0.43,cats,dogs,dogs,CDA21,mp3/reward-coin-drop.mp3,null,test,1,"""","""","""","""","""","""","""","""","""","""","2021-03-16 19:09:39",68.104.142.91,"Mozilla/5.0 (Windows NT 10.0; Win64; x64) AppleWebKit/537.36 (KHTML, like Gecko) Chrome/84.0.4147.105 Safari/537.36 Edg/84.0.522.52",WebKit,Edge,84.0.522.52,Windows,10.0
35,1,null,"""","""",html-keyboard-response,176,253569,0.0-4.0-0.0-0.44,cats,dogs,dogs,CDA21,"<p class=""fixation"">+</p>",null,test,1,"""","""","""","""","""","""","""","""","""","""","2021-03-16 19:09:39",68.104.142.91,"Mozilla/5.0 (Windows NT 10.0; Win64; x64) AppleWebKit/537.36 (KHTML, like Gecko) Chrome/84.0.4147.105 Safari/537.36 Edg/84.0.522.52",WebKit,Edge,84.0.522.52,Windows,10.0
35,1,667.2400000006601,"""",respond,html-keyboard-response,177,254238,0.0-4.0-0.0-1.44,cats,dogs,dogs,CDA21,"<img src=""img/7C_10S_yellow5.jpg"" style=""width:500px;""></img>",76,test,1,45,1,img/7C_10S_yellow5.jpg,0,0,dogs,dogs,true,true,"""","2021-03-16 19:09:39",68.104.142.91,"Mozilla/5.0 (Windows NT 10.0; Win64; x64) AppleWebKit/537.36 (KHTML, like Gecko) Chrome/84.0.4147.105 Safari/537.36 Edg/84.0.522.52",WebKit,Edge,84.0.522.52,Windows,10.0
35,1,null,"""",reward-feedback,audio-keyboard-response,178,255742,0.0-4.0-0.0-3.44-0.44,cats,dogs,dogs,CDA21,mp3/reward-coin-drop.mp3,null,test,1,"""","""","""","""","""","""","""","""","""","""","2021-03-16 19:09:39",68.104.142.91,"Mozilla/5.0 (Windows NT 10.0; Win64; x64) AppleWebKit/537.36 (KHTML, like Gecko) Chrome/84.0.4147.105 Safari/537.36 Edg/84.0.522.52",WebKit,Edge,84.0.522.52,Windows,10.0
35,1,null,"""","""",html-keyboard-response,179,256244,0.0-4.0-0.0-0.45,cats,dogs,dogs,CDA21,"<p class=""fixation"">+</p>",null,test,1,"""","""","""","""","""","""","""","""","""","""","2021-03-16 19:09:39",68.104.142.91,"Mozilla/5.0 (Windows NT 10.0; Win64; x64) AppleWebKit/537.36 (KHTML, like Gecko) Chrome/84.0.4147.105 Safari/537.36 Edg/84.0.522.52",WebKit,Edge,84.0.522.52,Windows,10.0
35,1,682.010000000475,"""",respond,html-keyboard-response,180,256933,0.0-4.0-0.0-1.45,cats,dogs,dogs,CDA21,"<img src=""img/7S_10C_yellow10.jpg"" style=""width:500px;""></img>",83,test,1,46,0,img/7S_10C_yellow10.jpg,0,0,cats,cats,true,false,"""","2021-03-16 19:09:39",68.104.142.91,"Mozilla/5.0 (Windows NT 10.0; Win64; x64) AppleWebKit/537.36 (KHTML, like Gecko) Chrome/84.0.4147.105 Safari/537.36 Edg/84.0.522.52",WebKit,Edge,84.0.522.52,Windows,10.0
35,1,null,"""","""",html-keyboard-response,181,258435,0.0-4.0-0.0-4.45-0.45,cats,dogs,dogs,CDA21,"
      <div style=""position: absolute; top: 2vh; left: 2vw;"">
        <img src=""img/yellow_circle.jpeg"" style=""width:100px;""></img>
        <p>S = cats</p>
      </div>
      <div style=""position: absolute; top: 2vh; right: 2vw;"">
        <img src=""img/yellow_square.jpeg"" style=""width:100px;""></img>
        <p>L = dogs</p>
      </div>",null,test,1,"""","""","""","""","""","""","""","""","""","""","2021-03-16 19:09:39",68.104.142.91,"Mozilla/5.0 (Windows NT 10.0; Win64; x64) AppleWebKit/537.36 (KHTML, like Gecko) Chrome/84.0.4147.105 Safari/537.36 Edg/84.0.522.52",WebKit,Edge,84.0.522.52,Windows,10.0
35,1,null,"""","""",html-keyboard-response,182,258938,0.0-4.0-0.0-0.46,cats,dogs,dogs,CDA21,"<p class=""fixation"">+</p>",null,test,1,"""","""","""","""","""","""","""","""","""","""","2021-03-16 19:09:39",68.104.142.91,"Mozilla/5.0 (Windows NT 10.0; Win64; x64) AppleWebKit/537.36 (KHTML, like Gecko) Chrome/84.0.4147.105 Safari/537.36 Edg/84.0.522.52",WebKit,Edge,84.0.522.52,Windows,10.0
35,1,610.870000000461,"""",respond,html-keyboard-response,183,259551,0.0-4.0-0.0-1.46,cats,dogs,dogs,CDA21,"<img src=""img/7C_10S_yellow3.jpg"" style=""width:500px;""></img>",76,test,1,47,1,img/7C_10S_yellow3.jpg,0,0,dogs,dogs,true,true,"""","2021-03-16 19:09:39",68.104.142.91,"Mozilla/5.0 (Windows NT 10.0; Win64; x64) AppleWebKit/537.36 (KHTML, like Gecko) Chrome/84.0.4147.105 Safari/537.36 Edg/84.0.522.52",WebKit,Edge,84.0.522.52,Windows,10.0
35,1,null,"""",reward-feedback,audio-keyboard-response,184,261059,0.0-4.0-0.0-3.46-0.46,cats,dogs,dogs,CDA21,mp3/reward-coin-drop.mp3,null,test,1,"""","""","""","""","""","""","""","""","""","""","2021-03-16 19:09:39",68.104.142.91,"Mozilla/5.0 (Windows NT 10.0; Win64; x64) AppleWebKit/537.36 (KHTML, like Gecko) Chrome/84.0.4147.105 Safari/537.36 Edg/84.0.522.52",WebKit,Edge,84.0.522.52,Windows,10.0
35,1,null,"""","""",html-keyboard-response,185,261562,0.0-4.0-0.0-0.47,cats,dogs,dogs,CDA21,"<p class=""fixation"">+</p>",null,test,1,"""","""","""","""","""","""","""","""","""","""","2021-03-16 19:09:39",68.104.142.91,"Mozilla/5.0 (Windows NT 10.0; Win64; x64) AppleWebKit/537.36 (KHTML, like Gecko) Chrome/84.0.4147.105 Safari/537.36 Edg/84.0.522.52",WebKit,Edge,84.0.522.52,Windows,10.0
35,1,737.8650000009802,"""",respond,html-keyboard-response,186,262301,0.0-4.0-0.0-1.47,cats,dogs,dogs,CDA21,"<img src=""img/7C_10S_yellow5.jpg"" style=""width:500px;""></img>",76,test,1,48,0,img/7C_10S_yellow5.jpg,0,0,dogs,dogs,true,false,"""","2021-03-16 19:09:39",68.104.142.91,"Mozilla/5.0 (Windows NT 10.0; Win64; x64) AppleWebKit/537.36 (KHTML, like Gecko) Chrome/84.0.4147.105 Safari/537.36 Edg/84.0.522.52",WebKit,Edge,84.0.522.52,Windows,10.0
35,1,null,"""","""",html-keyboard-response,187,263804,0.0-4.0-0.0-4.47-0.47,cats,dogs,dogs,CDA21,"
      <div style=""position: absolute; top: 2vh; left: 2vw;"">
        <img src=""img/yellow_circle.jpeg"" style=""width:100px;""></img>
        <p>S = cats</p>
      </div>
      <div style=""position: absolute; top: 2vh; right: 2vw;"">
        <img src=""img/yellow_square.jpeg"" style=""width:100px;""></img>
        <p>L = dogs</p>
      </div>",null,test,1,"""","""","""","""","""","""","""","""","""","""","2021-03-16 19:09:39",68.104.142.91,"Mozilla/5.0 (Windows NT 10.0; Win64; x64) AppleWebKit/537.36 (KHTML, like Gecko) Chrome/84.0.4147.105 Safari/537.36 Edg/84.0.522.52",WebKit,Edge,84.0.522.52,Windows,10.0
35,1,null,"""","""",html-keyboard-response,188,264311,0.0-4.0-0.0-0.48,cats,dogs,dogs,CDA21,"<p class=""fixation"">+</p>",null,test,1,"""","""","""","""","""","""","""","""","""","""","2021-03-16 19:09:39",68.104.142.91,"Mozilla/5.0 (Windows NT 10.0; Win64; x64) AppleWebKit/537.36 (KHTML, like Gecko) Chrome/84.0.4147.105 Safari/537.36 Edg/84.0.522.52",WebKit,Edge,84.0.522.52,Windows,10.0
35,1,1053.830000000773,"""",respond,html-keyboard-response,189,265366,0.0-4.0-0.0-1.48,cats,dogs,dogs,CDA21,"<img src=""img/7S_10C_yellow9.jpg"" style=""width:500px;""></img>",83,test,1,49,0,img/7S_10C_yellow9.jpg,0,0,cats,cats,true,false,"""","2021-03-16 19:09:39",68.104.142.91,"Mozilla/5.0 (Windows NT 10.0; Win64; x64) AppleWebKit/537.36 (KHTML, like Gecko) Chrome/84.0.4147.105 Safari/537.36 Edg/84.0.522.52",WebKit,Edge,84.0.522.52,Windows,10.0
35,1,null,"""","""",html-keyboard-response,190,266868,0.0-4.0-0.0-4.48-0.48,cats,dogs,dogs,CDA21,"
      <div style=""position: absolute; top: 2vh; left: 2vw;"">
        <img src=""img/yellow_circle.jpeg"" style=""width:100px;""></img>
        <p>S = cats</p>
      </div>
      <div style=""position: absolute; top: 2vh; right: 2vw;"">
        <img src=""img/yellow_square.jpeg"" style=""width:100px;""></img>
        <p>L = dogs</p>
      </div>",null,test,1,"""","""","""","""","""","""","""","""","""","""","2021-03-16 19:09:39",68.104.142.91,"Mozilla/5.0 (Windows NT 10.0; Win64; x64) AppleWebKit/537.36 (KHTML, like Gecko) Chrome/84.0.4147.105 Safari/537.36 Edg/84.0.522.52",WebKit,Edge,84.0.522.52,Windows,10.0
35,1,null,"""","""",html-keyboard-response,191,267374,0.0-4.0-0.0-0.49,cats,dogs,dogs,CDA21,"<p class=""fixation"">+</p>",null,test,1,"""","""","""","""","""","""","""","""","""","""","2021-03-16 19:09:39",68.104.142.91,"Mozilla/5.0 (Windows NT 10.0; Win64; x64) AppleWebKit/537.36 (KHTML, like Gecko) Chrome/84.0.4147.105 Safari/537.36 Edg/84.0.522.52",WebKit,Edge,84.0.522.52,Windows,10.0
35,1,705.3500000002095,"""",respond,html-keyboard-response,192,268081,0.0-4.0-0.0-1.49,cats,dogs,dogs,CDA21,"<img src=""img/7C_10S_yellow6.jpg"" style=""width:500px;""></img>",76,test,1,50,1,img/7C_10S_yellow6.jpg,0,0,dogs,dogs,true,true,"""","2021-03-16 19:09:39",68.104.142.91,"Mozilla/5.0 (Windows NT 10.0; Win64; x64) AppleWebKit/537.36 (KHTML, like Gecko) Chrome/84.0.4147.105 Safari/537.36 Edg/84.0.522.52",WebKit,Edge,84.0.522.52,Windows,10.0
35,1,null,"""",reward-feedback,audio-keyboard-response,193,269584,0.0-4.0-0.0-3.49-0.49,cats,dogs,dogs,CDA21,mp3/reward-coin-drop.mp3,null,test,1,"""","""","""","""","""","""","""","""","""","""","2021-03-16 19:09:39",68.104.142.91,"Mozilla/5.0 (Windows NT 10.0; Win64; x64) AppleWebKit/537.36 (KHTML, like Gecko) Chrome/84.0.4147.105 Safari/537.36 Edg/84.0.522.52",WebKit,Edge,84.0.522.52,Windows,10.0
35,1,null,"""","""",html-keyboard-response,194,270086,0.0-4.0-0.0-0.50,cats,dogs,dogs,CDA21,"<p class=""fixation"">+</p>",null,test,1,"""","""","""","""","""","""","""","""","""","""","2021-03-16 19:09:39",68.104.142.91,"Mozilla/5.0 (Windows NT 10.0; Win64; x64) AppleWebKit/537.36 (KHTML, like Gecko) Chrome/84.0.4147.105 Safari/537.36 Edg/84.0.522.52",WebKit,Edge,84.0.522.52,Windows,10.0
35,1,741.8400000005495,"""",respond,html-keyboard-response,195,270834,0.0-4.0-0.0-1.50,cats,dogs,dogs,CDA21,"<img src=""img/7C_10S_yellow4.jpg"" style=""width:500px;""></img>",76,test,1,51,0,img/7C_10S_yellow4.jpg,0,0,dogs,dogs,true,false,"""","2021-03-16 19:09:39",68.104.142.91,"Mozilla/5.0 (Windows NT 10.0; Win64; x64) AppleWebKit/537.36 (KHTML, like Gecko) Chrome/84.0.4147.105 Safari/537.36 Edg/84.0.522.52",WebKit,Edge,84.0.522.52,Windows,10.0
35,1,null,"""","""",html-keyboard-response,196,272336,0.0-4.0-0.0-4.50-0.50,cats,dogs,dogs,CDA21,"
      <div style=""position: absolute; top: 2vh; left: 2vw;"">
        <img src=""img/yellow_circle.jpeg"" style=""width:100px;""></img>
        <p>S = cats</p>
      </div>
      <div style=""position: absolute; top: 2vh; right: 2vw;"">
        <img src=""img/yellow_square.jpeg"" style=""width:100px;""></img>
        <p>L = dogs</p>
      </div>",null,test,1,"""","""","""","""","""","""","""","""","""","""","2021-03-16 19:09:39",68.104.142.91,"Mozilla/5.0 (Windows NT 10.0; Win64; x64) AppleWebKit/537.36 (KHTML, like Gecko) Chrome/84.0.4147.105 Safari/537.36 Edg/84.0.522.52",WebKit,Edge,84.0.522.52,Windows,10.0
35,1,null,"""","""",html-keyboard-response,197,272837,0.0-4.0-0.0-0.51,cats,dogs,dogs,CDA21,"<p class=""fixation"">+</p>",null,test,1,"""","""","""","""","""","""","""","""","""","""","2021-03-16 19:09:39",68.104.142.91,"Mozilla/5.0 (Windows NT 10.0; Win64; x64) AppleWebKit/537.36 (KHTML, like Gecko) Chrome/84.0.4147.105 Safari/537.36 Edg/84.0.522.52",WebKit,Edge,84.0.522.52,Windows,10.0
35,1,600.6649999999208,"""",respond,html-keyboard-response,198,273440,0.0-4.0-0.0-1.51,cats,dogs,dogs,CDA21,"<img src=""img/7S_10C_yellow10.jpg"" style=""width:500px;""></img>",83,test,1,52,0,img/7S_10C_yellow10.jpg,0,0,cats,cats,true,false,"""","2021-03-16 19:09:39",68.104.142.91,"Mozilla/5.0 (Windows NT 10.0; Win64; x64) AppleWebKit/537.36 (KHTML, like Gecko) Chrome/84.0.4147.105 Safari/537.36 Edg/84.0.522.52",WebKit,Edge,84.0.522.52,Windows,10.0
35,1,null,"""","""",html-keyboard-response,199,274946,0.0-4.0-0.0-4.51-0.51,cats,dogs,dogs,CDA21,"
      <div style=""position: absolute; top: 2vh; left: 2vw;"">
        <img src=""img/yellow_circle.jpeg"" style=""width:100px;""></img>
        <p>S = cats</p>
      </div>
      <div style=""position: absolute; top: 2vh; right: 2vw;"">
        <img src=""img/yellow_square.jpeg"" style=""width:100px;""></img>
        <p>L = dogs</p>
      </div>",null,test,1,"""","""","""","""","""","""","""","""","""","""","2021-03-16 19:09:39",68.104.142.91,"Mozilla/5.0 (Windows NT 10.0; Win64; x64) AppleWebKit/537.36 (KHTML, like Gecko) Chrome/84.0.4147.105 Safari/537.36 Edg/84.0.522.52",WebKit,Edge,84.0.522.52,Windows,10.0
35,1,null,"""","""",html-keyboard-response,200,275448,0.0-4.0-0.0-0.52,cats,dogs,dogs,CDA21,"<p class=""fixation"">+</p>",null,test,1,"""","""","""","""","""","""","""","""","""","""","2021-03-16 19:09:39",68.104.142.91,"Mozilla/5.0 (Windows NT 10.0; Win64; x64) AppleWebKit/537.36 (KHTML, like Gecko) Chrome/84.0.4147.105 Safari/537.36 Edg/84.0.522.52",WebKit,Edge,84.0.522.52,Windows,10.0
35,1,623.2999999992899,"""",respond,html-keyboard-response,201,276073,0.0-4.0-0.0-1.52,cats,dogs,dogs,CDA21,"<img src=""img/7C_10S_yellow5.jpg"" style=""width:500px;""></img>",76,test,1,53,1,img/7C_10S_yellow5.jpg,0,0,dogs,dogs,true,true,"""","2021-03-16 19:09:39",68.104.142.91,"Mozilla/5.0 (Windows NT 10.0; Win64; x64) AppleWebKit/537.36 (KHTML, like Gecko) Chrome/84.0.4147.105 Safari/537.36 Edg/84.0.522.52",WebKit,Edge,84.0.522.52,Windows,10.0
